original_timestamp,is_tap,AccX,AccY,AccZ,timestamp,acc_magnitude,acc_deviation,xy_magnitude,AccX_std,AccY_std,AccZ_std,acc_magnitude_std,AccX_diff,AccY_diff,AccZ_diff,jerk_magnitude
2025-03-01 08:33:41.085189,1,0.835,0.962,9.899,2025-03-01 08:33:41.085189,9.980624729945514,0.1806247299455137,1.2738402568611182,0.0,0.0,0.0,0.0,0.0,0.0,0.0,0.0
2025-03-01 08:33:41.368189,0,-0.26,-0.228,9.559,2025-03-01 08:33:41.368189,9.565253002404067,0.2347469975959342,0.3458091959448158,0.7116705698565875,0.5950226886430466,0.22004847950697906,0.2425503389678401,-1.095,-1.19,-0.33999999999999986,1.6524905446022982
2025-03-01 08:33:41.657189,0,-0.5,0.358,9.971,2025-03-01 08:33:41.657189,9.989945195044866,0.1899451950448654,0.6149504045042982,0.463258387223948,0.36294535860558036,0.2232405279812194,0.22796121349912557,-0.24,0.586,0.4120000000000008,0.7554733615422854
2025-03-01 08:33:41.988189,0,0.395,0.436,9.616,2025-03-01 08:33:41.988189,9.633980330060883,0.16601966993911788,0.5883204908891072,0.6894783051941036,0.551595262246997,0.23153473461520568,0.19617784105670374,0.895,0.07800000000000001,-0.3550000000000004,0.9659886127693226
2025-03-01 08:33:42.168189,1,0.856,1.35,9.536,2025-03-01 08:33:42.168189,9.669050211887411,0.13094978811258962,1.5985105567371147,0.2534409858987561,0.9040184363901731,0.13647466187294197,0.10037069590743287,0.46099999999999997,0.9140000000000001,-0.08000000000000007,1.0267993961821364
2025-03-01 08:33:42.653189,0,0.443,-0.458,9.802,2025-03-01 08:33:42.653189,9.822688888486695,0.02268888848669448,0.6371914939796356,0.5481626887460815,1.008162850601694,0.3726821702201473,0.41739592237905043,-0.413,-1.808,0.266,1.8735498392089813
2025-03-01 08:33:42.917189,1,1.529,1.219,10.272,2025-03-01 08:33:42.917189,10.456471010814308,0.6564710108143075,1.9554544228899837,0.8373296841746386,0.8967156740015199,0.36335244598048105,0.4611775042148901,1.0859999999999999,1.677,0.47000000000000064,2.0524680265475514
2025-03-01 08:33:42.982189,0,-0.118,-0.17,9.557,2025-03-01 08:33:42.982189,9.559240189471128,0.24075981052887307,0.20693960471596537,0.9620531863329247,0.7522169456568586,0.35850662476445,0.4556956205875842,-1.6469999999999998,-1.389,-0.7149999999999999,2.2700561667060133
2025-03-01 08:33:43.308189,0,-0.156,0.024,9.868,2025-03-01 08:33:43.308189,9.869262181135934,0.06926218113593308,0.15783535725559086,0.8073592756635671,0.5127088192466884,0.22244175267546698,0.18042127133450567,-0.038000000000000006,0.194,0.31099999999999994,0.36851187226465304
2025-03-01 08:33:43.365189,1,1.261,0.799,9.437,2025-03-01 08:33:43.365189,9.55434409051715,0.245655909482851,1.4928234992791345,0.74654158178452,0.42623350407963023,0.2162182539318394,0.15823786930268313,1.4169999999999998,0.775,-0.43100000000000094,1.6716085067981679
2025-03-01 08:33:43.596189,0,0.145,0.104,9.683,2025-03-01 08:33:43.596189,9.684644030629107,0.11535596937089387,0.1784404662625605,0.5745319834439159,0.5301606674710351,0.2267796287147505,0.1766702089392606,-1.1159999999999999,-0.6950000000000001,0.24600000000000044,1.3375339248034048
2025-03-01 08:33:43.923189,0,0.466,-0.242,9.89,2025-03-01 08:33:43.923189,9.903929523174124,0.10392952317412352,0.5250904683956852,0.7604684959505774,0.741572203722155,0.3923506085123325,0.4939661768275231,0.32100000000000006,-0.346,0.20700000000000074,0.5153697701650731
2025-03-01 08:33:44.087189,1,1.593,1.18,10.442,2025-03-01 08:33:44.087189,10.628518852596537,0.8285188525965363,1.98243511873655,0.76984175863182,0.7194124917829364,0.7185005219204785,0.6913171933454869,1.127,1.422,0.5519999999999996,1.8965539802494418
2025-03-01 08:33:44.537189,1,1.938,0.659,9.017,2025-03-01 08:33:44.537189,9.246427093748157,0.5535729062518442,2.046979482066198,0.34900764079505986,0.33057374366395204,0.7325068827890526,0.7178675036952941,0.345,-0.5209999999999999,-1.4250000000000007,1.555985539778568
2025-03-01 08:33:44.930189,1,1.24,1.272,9.435,2025-03-01 08:33:44.930189,9.600771271101088,0.19922872889891252,1.7763963521691886,0.5007617530656004,0.35078340895772175,0.4351107138802001,0.3841060075351844,-0.698,0.613,0.41800000000000104,1.0186741382797546
2025-03-01 08:33:45.378189,1,0.967,1.261,9.887,2025-03-01 08:33:45.378189,10.01388930436122,0.2138893043612189,1.5890909350946532,0.14277371373377246,0.11934962644823681,0.2514683545365806,0.23832360737697814,-0.273,-0.01100000000000012,0.45199999999999996,0.528160960314183
2025-03-01 08:33:45.478189,1,1.176,1.06,9.47,2025-03-01 08:33:45.478189,9.601430935022133,0.19856906497786753,1.5832169781808176,0.6718410030158422,0.6113594142019352,0.22189261667152035,0.20623817709282755,0.20899999999999996,-0.20099999999999985,-0.4169999999999998,0.5079084563186557
2025-03-01 08:33:45.806189,0,-0.078,0.116,9.81,2025-03-01 08:33:45.806189,9.810995871979562,0.010995871979561755,0.13978555004005244,0.6667923214914816,0.6813107465271141,0.31338793850434515,0.23408308067248074,-1.254,-0.9440000000000001,0.33999999999999986,1.6060049813123245
2025-03-01 08:33:45.937189,1,0.942,1.439,9.184,2025-03-01 08:33:45.937189,9.343657795531682,0.45634220446831897,1.719908427794922,0.5102940328869222,0.6946948970591336,0.32751386739088784,0.2416079748841655,1.02,1.323,-0.6260000000000012,1.783985706220765
2025-03-01 08:33:46.131189,0,0.462,0.41,9.664,2025-03-01 08:33:46.131189,9.683720359448635,0.1162796405513653,0.617692480122593,0.31786842141573723,0.5746949915679912,0.3082342183037698,0.22800343931915737,-0.4799999999999999,-1.0290000000000001,0.4800000000000004,1.2327371982705806
2025-03-01 08:33:46.239189,0,0.341,0.481,9.759,2025-03-01 08:33:46.239189,9.776795129284443,0.0232048707155581,0.5896117366538763,0.4873010705234827,0.5084430482692562,0.09450044091608584,0.09354433550257554,-0.121,0.07100000000000001,0.09500000000000064,0.1694314020481449
2025-03-01 08:33:46.590189,0,-0.436,-0.433,9.57,2025-03-01 08:33:46.590189,9.589707242663875,0.2102927573361253,0.61447945449787,0.3886313591738733,0.4735581625664721,0.10115499658116169,0.10414840225299474,-0.777,-0.9139999999999999,-0.18900000000000006,1.2144323776974986
2025-03-01 08:33:46.688189,0,-0.03,-0.191,9.602,2025-03-01 08:33:46.688189,9.603946324298153,0.1960536757018474,0.1933416664870767,0.22624175859759366,0.14879852149803044,0.029535289626736655,0.025322257692906438,0.406,0.242,0.03200000000000003,0.4737341026356452
2025-03-01 08:33:47.042189,0,-0.406,-0.162,9.629,2025-03-01 08:33:47.042189,9.638917003481252,0.1610829965187488,0.43712698383879256,0.20486825034640832,0.021079215671679648,0.15445495567748627,0.15227682957776664,-0.376,0.028999999999999998,0.026999999999999247,0.3780820016874646
2025-03-01 08:33:47.530189,0,-0.077,-0.15,9.882,2025-03-01 08:33:47.530189,9.883438318722892,0.08343831872289087,0.16860901518009053,0.9618910194680749,0.9076144555922409,0.19214317578306353,0.1256012492018967,0.329,0.01200000000000001,0.2530000000000001,0.4152035645319053
2025-03-01 08:33:47.970189,1,1.4,1.416,9.505,2025-03-01 08:33:47.970189,9.711337755427932,0.08866224457206862,1.9912448367792444,0.8039894277911863,0.8486766168570923,0.207082109318989,0.16879325195112607,1.4769999999999999,1.5659999999999998,-0.3769999999999989,2.1854093438072417
2025-03-01 08:33:48.086189,0,0.111,0.066,9.545,2025-03-01 08:33:48.086189,9.545873558768731,0.2541264412312696,0.1291394595001853,0.7509320874752918,0.7124839179471584,0.2019108714259876,0.16679141088465543,-1.289,-1.3499999999999999,0.03999999999999915,1.8669817888774383
2025-03-01 08:33:48.399189,0,0.088,0.346,9.873,2025-03-01 08:33:48.399189,9.879452869466,0.0794528694659995,0.3570154058300566,0.48828509431819905,0.5275607389991538,0.39688957322325397,0.3415104124063904,-0.023000000000000007,0.27999999999999997,0.3279999999999994,0.43187150866895535
2025-03-01 08:33:48.769189,1,0.945,1.087,9.083,2025-03-01 08:33:48.769189,9.196492972867429,0.6035070271325722,1.4403450975373921,0.4771334544268855,0.37198431866589926,0.47759815745038425,0.4345995783011189,0.857,0.741,-0.7899999999999991,1.3811697940514045
2025-03-01 08:33:49.147189,1,0.88,0.659,9.943,2025-03-01 08:33:49.147189,10.003595853491882,0.20359585349188158,1.0994002910678167,0.2913594572574107,0.5184952587375639,0.4761008296569145,0.43380197006689303,-0.06499999999999995,-0.42799999999999994,0.8599999999999994,0.9628130659686744
2025-03-01 08:33:49.404189,0,0.411,0.055,9.867,2025-03-01 08:33:49.404189,9.875709341611874,0.07570934161187282,0.4146637191749478,0.5509395006108503,0.39762461359092616,0.1948443823499466,0.260976841249667,-0.46900000000000003,-0.604,-0.07599999999999874,0.7684744628157788
2025-03-01 08:33:49.847189,1,1.509,0.805,10.236,2025-03-01 08:33:49.847189,10.377899691170656,0.5778996911706553,1.7102941267513023,0.6637065114441267,0.37502844336574437,0.2712938136657977,0.34333075659039514,1.0979999999999999,0.75,0.3689999999999998,1.3799510860896482
2025-03-01 08:33:50.136189,0,0.314,0.422,9.707,2025-03-01 08:33:50.136189,9.72124112446554,0.07875887553446148,0.5260038022676262,0.8136155930986897,0.2368818270783979,0.37014996960691454,0.4445860244664038,-1.1949999999999998,-0.38300000000000006,-0.5289999999999999,1.3618204727496204
2025-03-01 08:33:50.284189,0,-0.045,0.372,9.523,2025-03-01 08:33:50.284189,9.530369247830853,0.26963075216914767,0.3747118893229837,0.5222741936314033,0.43315740018304355,0.09351114015631237,0.10564356064445819,-0.359,-0.04999999999999999,-0.18400000000000105,0.4064935423841323
2025-03-01 08:33:50.731189,1,0.984,1.146,9.586,2025-03-01 08:33:50.731189,9.704275758654017,0.09572424134598378,1.510487338576527,0.5614982932595008,0.4172157715139733,0.24481081130810642,0.2306262398865561,1.029,0.7739999999999999,0.06300000000000061,1.2891415748473867
2025-03-01 08:33:51.208189,0,0.08,0.489,9.975,2025-03-01 08:33:51.208189,9.987299234527821,0.1872992345278206,0.49550075681072375,0.6462486621520638,0.4886167550681549,0.2225960466854699,0.15955105704102415,-0.904,-0.6569999999999999,0.38899999999999935,1.1832945533551649
2025-03-01 08:33:51.533189,0,-0.268,0.191,9.968,2025-03-01 08:33:51.533189,9.973431154823299,0.17343115482329807,0.32909725006447565,0.6251474492736352,0.3744453676216776,0.09734646030202436,0.14248479745561837,-0.34800000000000003,-0.298,-0.006999999999999673,0.4582106502472416
2025-03-01 08:33:51.776189,1,0.946,0.935,10.14,2025-03-01 08:33:51.776189,10.226863693234598,0.4268636932345977,1.3300905984180176,0.9952056738852191,0.5948579662406818,0.28410620080056953,0.20052298645420114,1.214,0.744,0.1720000000000006,1.4341952447278579
2025-03-01 08:33:52.117189,1,1.705,1.367,9.585,2025-03-01 08:33:52.117189,9.830968365323937,0.030968365323936098,2.185340705702431,0.7047157819527907,0.7776897410493039,0.32335481028327684,0.3258180545167937,0.7590000000000001,0.43199999999999994,-0.5549999999999997,1.0347608419340188
2025-03-01 08:33:52.193189,0,0.297,-0.143,9.575,2025-03-01 08:33:52.193189,9.58067236680182,0.21932763319817994,0.32963312940297734,0.8756810682739086,0.8796967280451448,0.016370705543774625,0.14716726951217668,-1.4080000000000001,-1.51,-0.010000000000001563,2.064621999301567
2025-03-01 08:33:52.595189,1,1.903,1.394,9.553,2025-03-01 08:33:52.595189,9.83994176812038,0.03994176812037864,2.358949978274232,0.9363017675941874,0.9252626654091256,0.014000000000034976,0.14806031579376058,1.606,1.537,-0.021999999999998465,2.223080970185297
2025-03-01 08:33:53.039189,0,0.266,-0.267,9.579,2025-03-01 08:33:53.039189,9.58641152882558,0.21358847117442004,0.376888577699033,0.9282867732189949,0.9791991625813412,0.12653194590037192,0.13371894712586,-1.637,-1.661,0.0259999999999998,2.3322448413492096
2025-03-01 08:33:53.170189,1,1.843,1.462,9.348,2025-03-01 08:33:53.170189,9.639460410209692,0.16053958979030902,2.3524653026134095,1.1842898012451735,0.8668934959574521,0.11844970803397831,0.053079051227660747,1.577,1.729,-0.23099999999999987,2.3515380073475316
2025-03-01 08:33:53.588189,0,-0.476,0.486,9.509,2025-03-01 08:33:53.588189,9.533302313469347,0.2666976865306534,0.6802734744203981,1.3205113908381605,0.5446690126428466,0.1650161608247372,0.0936148937060083,-2.319,-0.976,0.1609999999999996,2.5211620336662217
2025-03-01 08:33:53.887189,1,1.778,1.393,9.179,2025-03-01 08:33:53.887189,9.452818309901021,0.3471816900989797,2.2587016181868735,1.1802310508257832,0.5588013958465029,0.20647840887931768,0.05842129686760986,2.254,0.907,-0.33000000000000007,2.451951263789719
2025-03-01 08:33:54.093189,0,0.044,0.374,9.559,2025-03-01 08:33:54.093189,9.566414845698466,0.23358515430153481,0.37657934090972117,0.8832385483737297,0.618226765300026,0.35724688008901295,0.3322641696433772,-1.734,-1.0190000000000001,0.379999999999999,2.04683096517519
2025-03-01 08:33:54.362189,1,1.203,1.49,9.893,2025-03-01 08:33:54.362189,10.07664418345711,0.27664418345711006,1.915021931989292,0.6093884913036448,0.6724561943601481,0.22339501635741704,0.2733164108072552,1.159,1.116,0.3340000000000014,1.6432568271575814
2025-03-01 08:33:54.682189,0,0.297,0.282,9.983,2025-03-01 08:33:54.682189,9.991397399763459,0.19139739976345815,0.40955219447586894,0.5532109302366797,0.6476812487636182,0.15339600168625633,0.19862844925677164,-0.9060000000000001,-1.208,0.08999999999999986,1.5126797413861268
2025-03-01 08:33:54.770189,0,0.2,0.481,9.684,2025-03-01 08:33:54.770189,9.698000670241262,0.10199932975873871,0.5209232189104264,0.6907722731358957,0.2645127596166201,0.3601421015839881,0.289653355805635,-0.09699999999999998,0.199,-0.29900000000000126,0.37203628855260984
2025-03-01 08:33:55.240189,1,1.442,0.806,9.266,2025-03-01 08:33:55.240189,9.412106884220982,0.3878931157790184,1.6519685227025362,0.7943733379211559,0.333536104992148,0.3218793769928905,0.24516687268114026,1.242,0.32500000000000007,-0.41799999999999926,1.3501529542981416
2025-03-01 08:33:55.491189,0,-0.037,0.139,9.899,2025-03-01 08:33:55.491189,9.900044999897727,0.10004499989772597,0.1438401890988746,0.9622894574918713,0.3456747025745445,0.3374033194857433,0.24943582278019383,-1.4789999999999999,-0.667,0.6329999999999991,1.741556487743076
2025-03-01 08:33:55.553189,1,1.769,0.63,9.38,2025-03-01 08:33:55.553189,9.566120478020336,0.23387952197966477,1.8778341247298709,0.9352915766397841,0.5531223493345151,0.5220028735553051,0.5148122143216356,1.8059999999999998,0.491,-0.5189999999999984,1.942183822401988
2025-03-01 08:33:55.863189,1,1.288,1.243,10.424,2025-03-01 08:33:55.863189,10.57656697610335,0.77656697610335,1.789970111482312,0.7713950565911954,0.8136659838860989,0.5220718341377897,0.5151220711108011,-0.48099999999999987,0.6130000000000001,1.0439999999999987,1.3027148575187117
2025-03-01 08:33:56.114189,0,0.259,-0.369,9.887,2025-03-01 08:33:56.114189,9.897272907220454,0.09727290722045367,0.45082369059311866,0.5631290556642706,0.8087776785577934,0.4654385029195544,0.507078736552108,-1.029,-1.612,-0.536999999999999,1.9863922069923652
2025-03-01 08:33:56.313189,1,1.17,0.553,9.497,2025-03-01 08:33:56.313189,9.58476489017858,0.21523510982142113,1.2941054825631486,0.5655148097088173,0.7492422839108855,0.4091470803187158,0.441159649949769,0.9109999999999999,0.922,-0.39000000000000057,1.3535527326262544
2025-03-01 08:33:56.515189,1,1.295,1.115,10.315,2025-03-01 08:33:56.515189,10.455595391942058,0.6555953919420574,1.7088738982148448,0.26918457112794236,0.3906332465796192,0.6273805331163302,0.5907123228007972,0.125,0.5619999999999999,0.8179999999999996,1.0002964560569028
2025-03-01 08:33:56.866189,1,1.686,1.304,9.082,2025-03-01 08:33:56.866189,9.328758545487176,0.47124145451282473,2.131434258897046,0.26799689052922737,0.18105892226933656,0.6485031482832829,0.6004486630634445,0.391,0.18900000000000006,-1.2329999999999988,1.3072455775408065
2025-03-01 08:33:56.941189,1,1.808,0.942,10.047,2025-03-01 08:33:56.941189,10.251752874508828,0.45175287450882706,2.038682908154184,0.8572288687003804,0.763094358516691,0.5229942638308738,0.46743331543440664,0.12200000000000011,-0.3620000000000001,0.9649999999999999,1.0378598171236806
2025-03-01 08:33:57.207189,0,0.266,-0.161,9.914,2025-03-01 08:33:57.207189,9.918874583338576,0.11887458333857559,0.31092925240317937,0.7779723645477392,0.5851036945134883,0.22455808454234943,0.2678269892578395,-1.542,-1.103,-0.1330000000000009,1.9005425541144825
2025-03-01 08:33:57.636189,1,1.217,0.729,10.352,2025-03-01 08:33:57.636189,10.448752748534153,0.648752748534152,1.4186366694823591,0.7607261881474396,0.5164594208002535,0.6250543976327161,0.5655128514564342,0.9510000000000001,0.89,0.4380000000000006,1.3741706589794445
2025-03-01 08:33:57.705189,1,1.77,0.738,9.119,2025-03-01 08:33:57.705189,9.31846044151071,0.4815395584892901,1.9176923632324347,0.3039183004251876,0.13027023195394075,0.6218137448893607,0.5751996969356967,0.5529999999999999,0.009000000000000008,-1.2330000000000005,1.3513619056344608
2025-03-01 08:33:57.880189,1,1.712,0.959,9.876,2025-03-01 08:33:57.880189,10.069061574943316,0.26906157494331495,1.9623009453190405,0.4645183885847087,0.3315886005278231,0.5368820478776792,0.511022136879067,-0.05800000000000005,0.22099999999999997,0.7569999999999997,0.7907300424291462
2025-03-01 08:33:58.302189,1,0.938,1.39,10.157,2025-03-01 08:33:58.302189,10.29449333381687,0.49449333381686955,1.6768852077587182,0.3984147754957565,0.36186231267338903,0.1594270993275503,0.11686307700144732,-0.774,0.43099999999999994,0.2810000000000006,0.9294073380386021
2025-03-01 08:33:58.556189,1,1.161,0.671,10.147,2025-03-01 08:33:58.556189,10.235222078684957,0.43522207868495677,1.3409556293927105,0.1657839960108739,0.37911871491658156,0.5698666510684738,0.56582343266831,0.2230000000000001,-0.7189999999999999,-0.009999999999999787,0.7528545676291004
2025-03-01 08:33:58.838189,1,0.837,1.239,9.165,2025-03-01 08:33:58.838189,9.286167939467818,0.5138320605321827,1.4952223914856277,0.5746758506613384,0.6590063226808478,0.4913054040004015,0.47646231383039295,-0.32400000000000007,0.5680000000000001,-0.9820000000000011,1.179798287844156
2025-03-01 08:33:59.141189,0,0.044,-0.075,9.686,2025-03-01 08:33:59.141189,9.686390297732174,0.1136097022678264,0.08695401083331349,0.6709552891214127,0.7448961896353974,0.3620501806840199,0.30006267722049396,-0.7929999999999999,-1.314,0.5210000000000008,1.6207671023314858
2025-03-01 08:33:59.430189,0,-0.497,-0.026,9.861,2025-03-01 08:33:59.430189,9.87355083037506,0.0735508303750585,0.49767961581724446,0.2801862475806605,0.05980802621722814,0.08973850901367887,0.0955576964016911,-0.541,0.049,0.1750000000000007,0.570707455707388
2025-03-01 08:33:59.874189,0,-0.353,-0.145,9.739,2025-03-01 08:33:59.874189,9.746473977803461,0.05352602219653946,0.3816202300717298,0.8172417023133356,0.713492116284406,0.3824826793463981,0.4391585085563929,0.14400000000000002,-0.119,-0.12199999999999989,0.2231165614650781
2025-03-01 08:34:00.152189,1,0.985,1.146,10.454,2025-03-01 08:34:00.152189,10.562653880535896,0.7626538805358951,1.5111389744163175,0.6703262887082174,0.7959172905103481,0.3680448342253968,0.42368311225606065,1.338,1.291,0.7149999999999999,1.9920215862284223
2025-03-01 08:34:00.419189,0,0.389,-0.306,9.945,2025-03-01 08:34:00.419189,9.957307969526703,0.1573079695267019,0.4949313083651104,0.3900888787614084,0.7500008888883624,0.43944320831403594,0.4944612766503684,-0.596,-1.452,-0.5090000000000003,1.6500306057767535
2025-03-01 08:34:00.665189,0,0.251,0.094,9.579,2025-03-01 08:34:00.665189,9.582748979285642,0.2172510207143592,0.2680242526339734,0.41226973371002146,0.20338469296713044,0.2014803547081771,0.20525656367955358,-0.138,0.4,-0.36599999999999966,0.5594640292279743
2025-03-01 08:34:01.031189,0,-0.384,-0.042,9.908,2025-03-01 08:34:01.031189,9.915527419154262,0.11552741915426168,0.3862900464676769,0.8912958730597447,0.7852594051224944,0.21195361127693116,0.16793831880607282,-0.635,-0.136,0.32899999999999885,0.7279848899530809
2025-03-01 08:34:01.246189,1,1.376,1.381,9.512,2025-03-01 08:34:01.246189,9.70972095376587,0.09027904623413008,1.9494966016897797,0.9710339849871371,0.7116082723896158,0.31935768870238895,0.2703102284601468,1.7599999999999998,1.423,-0.395999999999999,2.2976825281139255
2025-03-01 08:34:01.578189,1,1.207,0.691,9.276,2025-03-01 08:34:01.578189,9.379685815633698,0.42031418436630297,1.390801926947184,0.9244549745660952,0.7978285112311627,0.24101728845319687,0.20833149024313988,-0.16899999999999982,-0.6900000000000001,-0.23600000000000065,0.7485699700094843
2025-03-01 08:34:01.828189,0,-0.303,-0.21,9.758,2025-03-01 08:34:01.828189,9.764961495059772,0.03503850494022842,0.3686583784481237,0.75503730592159,0.5296719110292084,0.24124952504270655,0.19310123884903704,-1.51,-0.9009999999999999,0.4819999999999993,1.8232457322039723
2025-03-01 08:34:02.052189,0,0.439,-0.242,9.536,2025-03-01 08:34:02.052189,9.549166508130433,0.2508334918695674,0.5012833530050643,0.4126709746678729,0.09204527871289021,0.21503798114131165,0.2121864513370622,0.742,-0.032,-0.22199999999999953,0.7751593384588744
2025-03-01 08:34:02.252189,0,0.381,-0.069,9.966,2025-03-01 08:34:02.252189,9.973518837401372,0.17351883740137097,0.3871976239596519,0.5844210810708319,0.7649877994669808,0.35578832658384274,0.4279626775809528,-0.057999999999999996,0.173,0.4299999999999997,0.4671113357648257
2025-03-01 08:34:02.698189,1,1.421,1.161,10.242,2025-03-01 08:34:02.698189,10.405081739227233,0.6050817392272325,1.8349828337071714,0.639253731575603,0.768781720212788,0.2750006060599335,0.356074172593412,1.04,1.23,0.2760000000000016,1.634220303386297
2025-03-01 08:34:02.928189,0,0.257,-0.253,9.692,2025-03-01 08:34:02.928189,9.69870723344096,0.10129276655904107,0.36063555010564335,0.7756107271047762,0.7558474272849869,0.31030952289608754,0.4023364985744382,-1.1640000000000001,-1.4140000000000001,-0.5500000000000007,1.9122740389389805
2025-03-01 08:34:03.323189,0,-0.049,-0.009,9.718,2025-03-01 08:34:03.323189,9.718127700334051,0.08187229966594955,0.049819674828324605,0.15569949689492305,0.13889684421661083,0.03484728588183815,0.03496301251918192,-0.306,0.244,0.0259999999999998,0.39223462366292955
2025-03-01 08:34:03.767189,0,0.154,-0.016,9.649,2025-03-01 08:34:03.767189,9.650242121314884,0.1497578786851168,0.15482893786369523,0.21054453210662713,0.23010070259200316,0.07817288532475532,0.07235299328970256,0.203,-0.007000000000000001,-0.06900000000000084,0.21452039530077346
2025-03-01 08:34:03.881189,0,-0.267,0.386,9.562,2025-03-01 08:34:03.881189,9.57351184257898,0.22648815742102002,0.46934528867348824,1.1354128470883764,0.48315766922748266,0.2267796287147446,0.0976422825268124,-0.42100000000000004,0.402,-0.08699999999999974,0.5885694521464735
2025-03-01 08:34:04.274189,1,1.876,0.946,9.22,2025-03-01 08:34:04.274189,9.456357226754921,0.3436427732450795,2.101021656242505,1.1388925907798915,0.5239239766734612,0.17519417798545112,0.061747214002620676,2.143,0.5599999999999999,-0.34199999999999875,2.2412079332360038
2025-03-01 08:34:04.508189,1,1.473,1.433,9.325,2025-03-01 08:34:04.508189,9.548761333282972,0.251238666717029,2.055046958100958,0.47263340268471726,0.3133150703897495,0.6018723563458703,0.513227615151332,-0.4029999999999998,0.4870000000000001,0.10499999999999865,0.6407831146339608
2025-03-01 08:34:04.951189,1,0.934,0.848,10.311,2025-03-01 08:34:04.951189,10.387886262373112,0.5878862623731109,1.2615308161119172,0.7232558330217601,0.7859391409856962,0.5063421109618775,0.46555101982095726,-0.539,-0.5850000000000001,0.9860000000000007,1.2668630549510873
2025-03-01 08:34:05.010189,0,0.041,-0.123,9.618,2025-03-01 08:34:05.010189,9.618873842607565,0.18112615739243587,0.12965338406690355,0.6848812549145533,0.5606071113831274,0.6052346652332441,0.5809855824304525,-0.893,-0.971,-0.6929999999999996,1.4901473081544656
2025-03-01 08:34:05.327189,1,1.387,0.848,9.105,2025-03-01 08:34:05.327189,9.248994431828791,0.5510055681712096,1.6256915451585519,0.8722209200273366,0.5264304322510248,0.3036549576959549,0.2867400899485523,1.346,0.971,-0.5129999999999999,1.7371603265099052
2025-03-01 08:34:05.430189,1,1.675,0.715,9.643,2025-03-01 08:34:05.430189,9.813475378274509,0.013475378274508287,1.8212221171510081,0.7960201002487313,0.46007209579948893,0.3568001307922012,0.3170939660950269,0.28800000000000003,-0.133,0.5380000000000003,0.6245614461364072
2025-03-01 08:34:05.734189,0,0.175,-0.007,9.78,2025-03-01 08:34:05.734189,9.781568074700496,0.018431925299504215,0.17513994404475525,0.7505553499465136,0.586675378723192,0.17583799361912283,0.14301617098812558,-1.5,-0.722,0.13699999999999868,1.6703451739086745
2025-03-01 08:34:05.939189,1,0.975,1.155,9.431,2025-03-01 08:34:05.939189,9.551356500518656,0.24864349948134468,1.5115058716392735,0.4723081621145241,0.6960792579393055,0.2547632888257886,0.19004983378743198,0.8,1.162,-0.3490000000000002,1.4532876521872744
2025-03-01 08:34:06.060189,0,0.14,-0.09,9.927,2025-03-01 08:34:06.060189,9.928395086820426,0.12839508682042577,0.1664331697709324,0.6996844526880189,0.6773539202908138,0.30925286309641914,0.24387870669426617,-0.835,-1.245,0.49600000000000044,1.5790079163829422
2025-03-01 08:34:06.319189,0,-0.415,0.07,9.999,2025-03-01 08:34:06.319189,10.00785321634965,0.20785321634964937,0.4208622102303793,0.28303768889201375,0.26138158568142156,0.04186088070421528,0.04699201294822838,-0.5549999999999999,0.16,0.07200000000000095,0.5820730194743612
2025-03-01 08:34:06.786189,0,-0.234,0.421,10.0,2025-03-01 08:34:06.786189,10.01159312996688,0.21159312996687873,0.48166066893612974,0.1657417670152345,0.2049983739772932,0.011269427669547354,0.011785080670225746,0.18099999999999997,0.351,0.0009999999999994458,0.39492151118924884
2025-03-01 08:34:06.859189,0,-0.084,0.429,9.98,2025-03-01 08:34:06.859189,9.989569410139758,0.18956941013975737,0.4371464285568395,1.0880065869898643,0.2881255513371452,0.3275103051813778,0.21808234527034376,0.15000000000000002,0.008000000000000007,-0.019999999999999574,0.1515387739161169
2025-03-01 08:34:07.096189,1,1.721,0.924,9.423,2025-03-01 08:34:07.096189,9.62333341415541,0.1766665858445915,1.9533604378096738,1.0665769233080817,0.2563259643500839,0.35543072461451525,0.3191863276219429,1.8050000000000002,0.49500000000000005,-0.5570000000000004,1.9527670111920676
2025-03-01 08:34:07.467189,1,1.803,0.561,10.084,2025-03-01 08:34:07.467189,10.259268297495684,0.459268297495683,1.8882611048263425,1.106962661219128,0.397998743716611,0.3441961649989711,0.37742642652815783,0.08199999999999985,-0.363,0.6609999999999996,0.758560478801789
2025-03-01 08:34:07.909189,0,-0.154,0.129,9.587,2025-03-01 08:34:07.909189,9.589104546306709,0.21089545369329166,0.20089051744669284,1.0960941261284693,0.3230190912830606,0.28466178762407235,0.38513957394392845,-1.9569999999999999,-0.43200000000000005,-0.4969999999999999,2.0648200890150212
2025-03-01 08:34:08.184189,0,-0.031,-0.071,9.595,2025-03-01 08:34:08.184189,9.595312761968732,0.2046872380312692,0.07747257579298625,0.22257358333818278,0.11815385450053831,0.019467922333907702,0.025540968322563296,0.123,-0.2,0.008000000000000895,0.23493190502781872
2025-03-01 08:34:08.529189,0,-0.463,0.138,9.624,2025-03-01 08:34:08.529189,9.636118980170389,0.16388101982961167,0.4831283473363988,1.29694422907592,0.6547368428104028,0.1959702358352728,0.044379317183533606,-0.43200000000000005,0.20900000000000002,0.028999999999999915,0.48077645533033336
2025-03-01 08:34:08.624189,1,1.968,1.153,9.271,2025-03-01 08:34:08.624189,9.54745379669365,0.25254620330635014,2.2808842583524487,1.4078886082831035,0.5149825239753292,0.5836063170779863,0.5999536655730148,2.431,1.0150000000000001,-0.35299999999999976,2.6579305860010716
2025-03-01 08:34:09.066189,1,1.983,0.797,10.411,2025-03-01 08:34:09.066189,10.628095737242866,0.8280957372428652,2.137170559407929,1.3709387294842903,0.6417881270325905,0.5898782360227669,0.6128778534228557,0.015000000000000124,-0.356,1.1399999999999988,1.194387290622266
2025-03-01 08:34:09.127189,0,-0.399,-0.093,9.578,2025-03-01 08:34:09.127189,9.586758263354719,0.21324173664528168,0.4096950085124299,1.218885283089977,0.7018250019294936,0.45074715750628763,0.5398931084052506,-2.382,-0.89,-0.8330000000000002,2.67580137528928
2025-03-01 08:34:09.489189,1,1.241,1.292,9.696,2025-03-01 08:34:09.489189,9.860109583569546,0.06010958356954532,1.7914644847163452,0.880383439189993,0.770854720424024,0.25068373168861857,0.2946674767943144,1.6400000000000001,1.385,0.11800000000000033,2.1498253417429054
2025-03-01 08:34:09.669189,1,0.976,1.186,10.059,2025-03-01 08:34:09.669189,10.175591039345084,0.37559103934508364,1.5359596348862818,0.44758946964080104,0.08227595841637715,0.21558370377496267,0.23064917201306628,-0.2650000000000001,-0.1060000000000001,0.36299999999999955,0.4617683401880209
2025-03-01 08:34:09.943189,1,1.849,1.13,10.079,2025-03-01 08:34:09.943189,10.30931336219828,0.509313362198279,2.166956621623977,0.9270147427810053,0.8335868281109053,0.15793353032208643,0.2639736278085141,0.873,-0.05600000000000005,0.02000000000000135,0.8750228568443227
2025-03-01 08:34:10.256189,0,-0.004,-0.285,9.796,2025-03-01 08:34:10.256189,9.800145764222082,0.00014576422208101292,0.28502806879323306,1.171046113524143,0.7203376523085084,0.14252134343083836,0.25883151812948324,-1.853,-1.4149999999999998,-0.28300000000000125,2.3486002214084882
2025-03-01 08:34:10.738189,0,-0.318,0.188,9.967,2025-03-01 08:34:10.738189,9.973843642247456,0.17384364224745497,0.36941575494285567,1.2082455600304656,0.6525996731023803,0.09396275858018614,0.12775568631748824,-0.314,0.473,0.17100000000000115,0.5929300127333751
2025-03-01 08:34:11.003189,1,1.914,1.005,9.814,2025-03-01 08:34:11.003189,10.0492794269042,0.2492794269041987,2.161809658596242,1.1987398939441922,0.45872976794622816,0.1843429774451213,0.23890291118105098,2.2319999999999998,0.817,-0.15300000000000047,2.3817476776518536
2025-03-01 08:34:11.490189,0,0.04,0.235,9.6,2025-03-01 08:34:11.490189,9.602959179336336,0.19704082066366446,0.23837994882120433,1.005330459766008,0.48644972333565334,0.1084865583071622,0.23801614195520707,-1.8739999999999999,-0.7699999999999999,-0.2140000000000004,2.0372952657874603
2025-03-01 08:34:11.639189,0,0.346,0.105,9.676,2025-03-01 08:34:11.639189,9.682753585628419,0.11724641437158212,0.36158124951385406,0.17552587653486623,0.24881787181256462,0.12265942007580673,0.12234112500404594,0.306,-0.13,0.07600000000000051,0.34104545151636323
2025-03-01 08:34:11.963189,0,0.044,-0.246,9.84,2025-03-01 08:34:11.963189,9.843172862446336,0.043172862446335,0.24990398156091873,0.15293462655657747,0.17643979143039284,0.15118641914316644,0.1511708669291663,-0.302,-0.351,0.1639999999999997,0.4912239814992748
2025-03-01 08:34:12.213189,0,0.237,-0.039,9.538,2025-03-01 08:34:12.213189,9.541023739620398,0.25897626037960286,0.24018742681497715,0.919312968108975,0.804296587087127,0.16426300050021445,0.16558276811985406,0.193,0.207,-0.3019999999999996,0.41388645786012346
2025-03-01 08:34:12.358189,1,1.724,1.239,9.577,2025-03-01 08:34:12.358189,9.809496725112863,0.009496725112862592,2.1230395662822676,0.7649420457350566,0.6393965905445543,0.12993203351496305,0.18103427599614963,1.487,1.278,0.0389999999999997,1.9611154988934232
2025-03-01 08:34:12.663189,1,1.292,0.639,9.78,2025-03-01 08:34:12.663189,9.885645401287666,0.08564540128766573,1.4413830164116683,0.7904549323016462,0.6732844866770661,0.11927419391189763,0.05076000169241376,-0.43199999999999994,-0.6000000000000001,0.2029999999999994,0.7667026803135618
2025-03-01 08:34:13.096189,0,0.191,-0.105,9.787,2025-03-01 08:34:13.096189,9.789426694143025,0.010573305856976134,0.21795871168641093,0.5773655687690425,0.7630788513209718,0.08926925562588454,0.0556723645387194,-1.101,-0.744,0.0070000000000014495,1.3288288076347532
2025-03-01 08:34:13.465189,1,1.043,1.421,9.629,2025-03-01 08:34:13.465189,9.78901072631959,0.01098927368041025,1.7626939609586232,0.5010911427408523,0.7638664804794096,0.35417839196276557,0.340440804818711,0.8519999999999999,1.526,-0.15800000000000125,1.7548629576123602
2025-03-01 08:34:13.686189,1,1.074,0.595,10.306,2025-03-01 08:34:13.686189,10.37887937110746,0.57887937110746,1.2278033230122811,0.5963156323066948,0.6445039436134844,0.3386684711237967,0.3048780663613944,0.03100000000000014,-0.8260000000000001,0.6769999999999996,1.0684409202197376
2025-03-01 08:34:14.097189,0,0.026,0.151,9.949,2025-03-01 08:34:14.097189,9.950179797370497,0.15017979737049636,0.1532220610747682,0.7038759360379734,0.5338954329579283,0.2925685104951134,0.3252474240320218,-1.048,-0.44399999999999995,-0.3569999999999993,1.192849110323682
2025-03-01 08:34:14.327189,0,-0.264,-0.468,9.726,2025-03-01 08:34:14.327189,9.740831381355497,0.05916861864450418,0.5373267162537148,0.5650932076510327,0.5931899639519652,0.1530130713370545,0.12799806903153513,-0.29000000000000004,-0.619,-0.22299999999999898,0.7190201666156517
2025-03-01 08:34:14.807189,1,0.827,0.718,9.656,2025-03-01 08:34:14.807189,9.717910732251044,0.08208926774895708,1.0951954163527164,1.090000152905188,0.8430877771620227,0.4148618243865419,0.5291220226310192,1.091,1.186,-0.07000000000000028,1.6130024798493028
2025-03-01 08:34:15.097189,1,1.916,1.163,10.407,2025-03-01 08:34:15.097189,10.645622292754895,0.8456222927548946,2.2413444625938244,1.20119537683648,0.39081581339551774,0.4321539077689767,0.5466775507039513,1.089,0.44500000000000006,0.7509999999999994,1.3956887188768128
2025-03-01 08:34:15.204189,0,-0.483,0.384,9.661,2025-03-01 08:34:15.204189,9.68068520302153,0.11931479697847003,0.6170453792064243,1.2180206621126477,0.4589665928292968,0.4490270964355386,0.5773649841315164,-2.399,-0.779,-0.7460000000000004,2.630315190238615
2025-03-01 08:34:15.496189,0,0.35,0.353,9.601,2025-03-01 08:34:15.496189,9.613860306869453,0.18613969313054746,0.4971005934416091,0.4532133419630679,0.16613548687742855,0.07180761333823672,0.0776969273939574,0.833,-0.031000000000000028,-0.05999999999999872,0.8357332110189231
2025-03-01 08:34:15.743189,0,-0.376,0.082,9.518,2025-03-01 08:34:15.743189,9.525776818716677,0.27422318128332357,0.38483762809787714,1.1144403677780759,0.5478932377753902,0.5077463277398763,0.6269185794943496,-0.726,-0.27099999999999996,-0.08300000000000018,0.7793625600450665
2025-03-01 08:34:16.089189,1,1.812,1.137,10.436,2025-03-01 08:34:16.089189,10.652990612968736,0.8529906129687355,2.1391851252287633,1.1808765106196892,0.71831956676677,0.48274354820476584,0.5998953111477134,2.188,1.055,0.9179999999999993,2.5967466183669132
2025-03-01 08:34:16.185189,1,1.488,1.454,10.236,2025-03-01 08:34:16.185189,10.445283911890572,0.6452839118905711,2.0804470673391333,1.0597685281859113,0.6084606259515348,0.4804844777236069,0.5989331513867466,-0.32400000000000007,0.31699999999999995,-0.1999999999999993,0.4954442450972659
2025-03-01 08:34:16.570189,0,-0.164,0.278,9.522,2025-03-01 08:34:16.570189,9.527468918868221,0.2725310811317794,0.3227692674341844,0.9572655500608662,0.6591631057636647,0.4368230000049585,0.4959227274571811,-1.652,-1.176,-0.7140000000000004,2.1498548788232195
2025-03-01 08:34:17.041189,1,1.5,1.382,9.443,2025-03-01 08:34:17.041189,9.660754266619143,0.13924573338085722,2.0395891743191816,0.8358061976319626,0.5790569920137397,0.3397651149446222,0.30687781026058497,1.664,1.1039999999999999,-0.07900000000000063,1.9984876782207088
2025-03-01 08:34:17.439189,1,0.806,0.527,10.067,2025-03-01 08:34:17.439189,10.112954761097273,0.3129547610972718,0.9629979231545622,0.6845219743246617,0.5432154268796131,0.3292192784958531,0.22857024354945382,-0.694,-0.8549999999999999,0.6240000000000006,1.265716002901125
2025-03-01 08:34:17.714189,0,0.131,0.374,9.937,2025-03-01 08:34:17.714189,9.944898491186322,0.14489849118632137,0.3962789421606957,0.5510562584709472,0.3900696518999314,0.09928914005734647,0.0847703586549579,-0.675,-0.15300000000000002,-0.13000000000000078,0.7042258160561854
2025-03-01 08:34:18.186189,1,1.223,1.113,9.872,2025-03-01 08:34:18.186189,10.009539549849434,0.20953954984943302,1.6536317607012754,0.7103325512274746,0.43405875178367304,0.14485510001374943,0.19881874194464624,1.092,0.739,-0.0649999999999995,1.320155293895381
2025-03-01 08:34:18.648189,1,1.464,1.138,10.149,2025-03-01 08:34:18.648189,10.317002520112126,0.5170025201121256,1.8542761390904,0.14656170486635686,0.06841296173484605,0.18237050200071148,0.19142455979233255,0.24099999999999988,0.02499999999999991,0.27699999999999925,0.36801494534869034
2025-03-01 08:34:19.082189,1,1.199,1.242,10.216,2025-03-01 08:34:19.082189,10.360831096007693,0.5608310960076928,1.7263154404685142,0.22665024450313986,0.27685916997636223,0.5002422746363288,0.5422733762113592,-0.2649999999999999,0.10400000000000009,0.06700000000000017,0.2924551247627574
2025-03-01 08:34:19.413189,1,1.013,0.719,9.318,2025-03-01 08:34:19.413189,9.400439032300566,0.3995609676994345,1.2422278373953788,0.10186756107809644,0.33675064959105905,0.4637542452635865,0.48954803504112443,-0.18600000000000017,-0.523,-0.8979999999999997,1.0557125555756168
2025-03-01 08:34:19.630189,1,1.034,1.348,9.566,2025-03-01 08:34:19.630189,9.715689167526923,0.08431083247307747,1.6988996438871837,0.8744600238623449,0.48500549825062167,0.1414826255528818,0.15816617500142216,0.02100000000000013,0.6290000000000001,0.2480000000000011,0.6764510329654325
2025-03-01 08:34:19.957189,0,-0.491,0.394,9.56,2025-03-01 08:34:19.957189,9.580705454192817,0.219294545807184,0.6295371315498396,0.7720338939019017,0.7160567947679388,0.24943335783330609,0.21771452387626142,-1.525,-0.9540000000000001,-0.006000000000000227,1.7988265619564328
2025-03-01 08:34:20.104189,0,0.481,-0.054,9.995,2025-03-01 08:34:20.104189,10.006712846884335,0.20671284688433467,0.4840216937287005,0.5632160627444256,0.2595232809081571,0.222654440782117,0.218749364572973,0.972,-0.448,0.4349999999999987,1.1552977971068754
2025-03-01 08:34:20.547189,0,0.488,-0.057,9.695,2025-03-01 08:34:20.547189,9.707441372472976,0.09255862752702448,0.49131761621175357,0.2982219531378145,0.17811887416367256,0.16031635391727642,0.1618294748113713,0.007000000000000006,-0.0030000000000000027,-0.29999999999999893,0.3000966510976078
2025-03-01 08:34:20.759189,0,-0.032,0.253,9.747,2025-03-01 08:34:20.759189,9.750335481407806,0.049664518592194895,0.25501568579207046,0.9097435536091107,0.3601129452454245,0.0805232885567722,0.17340147321308208,-0.52,0.31,0.0519999999999996,0.6076215927697106
2025-03-01 08:34:21.224189,1,1.738,0.661,9.853,2025-03-01 08:34:21.224189,10.026922459059909,0.22692245905990838,1.8594528765204026,0.9862709228874857,0.6063467104993098,0.06700248751598954,0.14537937370478823,1.77,0.40800000000000003,0.10599999999999987,1.819505427307102
2025-03-01 08:34:21.378189,1,1.607,1.446,9.729,2025-03-01 08:34:21.378189,9.966283459745663,0.16628345974566194,2.1617967064458212,0.7306916814452816,0.8879168504614235,0.12399999999998144,0.03050257553191112,-0.131,0.7849999999999999,-0.12400000000000055,0.8054576338951664
2025-03-01 08:34:21.449189,0,0.412,-0.326,9.977,2025-03-01 08:34:21.449189,9.990823239353203,0.1908232393532021,0.52537605579242,1.016098912508029,0.9156032619717636,0.14961394765639224,0.1508491109898302,-1.195,-1.772,0.2480000000000011,2.15163031211219
2025-03-01 08:34:21.733189,0,-0.414,0.16,9.708,2025-03-01 08:34:21.733189,9.718140768686158,0.08185923131384243,0.4438423143414787,0.7340090825959397,0.7905601389732053,0.1567705329454312,0.2012796159474047,-0.826,0.486,-0.26900000000000013,0.9954059473400788
2025-03-01 08:34:22.160189,1,1.05,1.22,9.982,2025-03-01 08:34:22.160189,10.110945752005595,0.31094575200559404,1.6096272860510286,0.8220656908057893,0.567421360190115,0.2860839037764936,0.3022755583982292,1.464,1.06,0.27399999999999913,1.8281061238341716
2025-03-01 08:34:22.246189,1,0.966,1.041,9.41,2025-03-01 08:34:22.246189,9.516561196146432,0.2834388038535689,1.4201538649033771,0.3518129237724685,0.7166177502685795,0.33169715102785613,0.31519926526004405,-0.08400000000000007,-0.17900000000000005,-0.5719999999999992,0.6052115332675007
2025-03-01 08:34:22.585189,0,0.403,-0.101,9.987,2025-03-01 08:34:22.585189,9.995637998647211,0.19563799864721076,0.4154635964798842,0.3191587901552028,0.704253505493583,0.293401317879338,0.2523778994544983,-0.563,-1.142,0.577,1.3978776770518944
2025-03-01 08:34:22.748189,0,0.424,-0.244,9.606,2025-03-01 08:34:22.748189,9.618448315606836,0.18155168439316505,0.4891952575403813,0.4986525176245807,0.6709488306371311,0.2903394564987588,0.34277962902130815,0.020999999999999963,-0.143,-0.3810000000000002,0.40749355823129296
2025-03-01 08:34:22.902189,1,1.277,0.983,10.176,2025-03-01 08:34:22.902189,10.302814858086116,0.5028148580861149,1.6115266054272885,0.7767897613468736,0.7687984131097048,0.286400651768338,0.3475421326545242,0.853,1.2269999999999999,0.5700000000000003,1.5993867574792533
2025-03-01 08:34:22.961189,0,-0.274,-0.433,9.842,2025-03-01 08:34:22.961189,9.855329979254881,0.05532997925488026,0.5124109678763716,0.9222365929268546,0.8381569065515122,0.37471233410888644,0.3628260498451775,-1.551,-1.416,-0.33399999999999963,2.126549552679175
2025-03-01 08:34:23.078189,1,1.366,1.052,9.428,2025-03-01 08:34:23.078189,9.584354125344078,0.2156458746559231,1.7241403655155227,1.0988613803994263,0.9114199544300825,0.22018704170167297,0.136882198630073,1.6400000000000001,1.485,-0.4139999999999997,2.250826737001318
2025-03-01 08:34:23.414189,1,1.813,1.225,9.505,2025-03-01 08:34:23.414189,9.75359518331574,0.04640481668426055,2.1880571290530786,0.9563066105247482,0.7517954065657315,0.18843831882077755,0.10873661200854075,0.44699999999999984,0.17300000000000004,0.07699999999999996,0.4854554562470174
2025-03-01 08:34:23.772189,0,-0.021,-0.155,9.786,2025-03-01 08:34:23.772189,9.787249971263634,0.012750028736366659,0.15641611170208777,0.9234015016954067,0.7615037754338452,0.5057479609449687,0.47889500238004057,-1.8339999999999999,-1.3800000000000001,0.2809999999999988,2.3123401566378594
2025-03-01 08:34:23.915189,1,1.084,1.093,10.487,2025-03-01 08:34:23.915189,10.5993808309731,0.7993808309730994,1.539384617306539,0.5600270826784473,0.6612536074255727,0.4708258701473328,0.5313757225697799,1.105,1.248,0.7010000000000005,1.808294776854703
2025-03-01 08:34:24.272189,0,0.373,0.09,9.592,2025-03-01 08:34:24.272189,9.599671504796401,0.20032849520359974,0.3837043132413291,0.7687047547660928,0.6227538304445293,0.44939997033080115,0.5049561763412116,-0.7110000000000001,-1.003,-0.8949999999999996,1.5207087163556336
2025-03-01 08:34:24.360189,1,1.909,1.231,9.968,2025-03-01 08:34:24.360189,10.223534907261774,0.42353490726177334,2.271484536597157,0.768026258231665,0.6891156168113834,0.18810723891793674,0.31204545894931945,1.536,1.141,0.37599999999999945,1.950013589696236
2025-03-01 08:34:24.489189,1,1.152,1.33,9.769,2025-03-01 08:34:24.489189,9.926195897724364,0.12619589772436335,1.759546532490687,0.40007790907938445,0.3690858075479649,0.3640251822791004,0.43002209878376435,-0.7570000000000001,0.09899999999999998,-0.19899999999999984,0.7889556388036022
2025-03-01 08:34:24.885189,1,1.306,0.647,9.262,2025-03-01 08:34:24.885189,9.375974029400894,0.4240259705991072,1.4574789878416774,0.07844955916595205,0.4210182102158211,0.3787888593926785,0.40676798942948356,0.15400000000000014,-0.683,-0.5069999999999997,0.8644385461095542
2025-03-01 08:34:25.051189,1,1.255,0.562,9.028,2025-03-01 08:34:25.051189,9.13212204254849,0.6678779574515108,1.3750887244101742,0.12361364541721191,0.05924806607251553,0.33462217499742464,0.31737889706186867,-0.051000000000000156,-0.08499999999999996,-0.23399999999999999,0.25412988804939884
2025-03-01 08:34:25.379189,1,1.071,0.533,9.688,2025-03-01 08:34:25.379189,9.761581531698642,0.038418468301358644,1.1962984577437188,0.48171672173591684,0.06261256529909272,0.3918571168168351,0.35738346626917883,-0.18399999999999994,-0.029000000000000026,0.6600000000000001,0.6857820353435924
2025-03-01 08:34:25.619189,0,0.344,0.442,9.724,2025-03-01 08:34:25.619189,9.740116837081576,0.05988316291842466,0.5600892785976178,0.6174563412366352,0.1788024981182677,0.09524704719831607,0.11809880415888252,-0.727,-0.09100000000000003,0.03599999999999959,0.733557087076391
2025-03-01 08:34:26.034189,0,-0.157,0.188,9.544,2025-03-01 08:34:26.034189,9.547142452063865,0.25285754793613613,0.24493468517137382,0.8658158002716275,0.3302377931127808,0.14413535305398495,0.21833814003903104,-0.501,-0.254,-0.17999999999999972,0.5898448948664385
2025-03-01 08:34:26.402189,1,1.529,0.843,9.829,2025-03-01 08:34:26.402189,9.982871881377623,0.182871881377622,1.7459925543942048,1.0941070940878375,0.47608507643067316,0.33885837749713527,0.45281931692238303,1.686,0.655,0.28500000000000014,1.8310778246704862
2025-03-01 08:34:26.551189,1,1.894,1.114,10.219,2025-03-01 08:34:26.551189,10.452568727351185,0.6525687273511842,2.197323826840277,0.7957262929760032,0.6671763884710948,0.28248362784414566,0.3900646619340585,0.365,0.27100000000000013,0.3899999999999988,0.5989707839285645
2025-03-01 08:34:26.981189,0,0.37,-0.153,9.67,2025-03-01 08:34:26.981189,9.678285436997609,0.12171456300239214,0.40038606369353064,0.9581175989059653,0.6784263654467839,0.3238091001397658,0.4560239387834278,-1.524,-1.2670000000000001,-0.5489999999999995,2.0565179308724737
2025-03-01 08:34:27.058189,0,0.126,0.06,9.647,2025-03-01 08:34:27.058189,9.64800938017786,0.1519906198221399,0.1395564401953561,0.4593259554317959,0.4742808591260384,0.3341950528259449,0.2864967326676321,-0.244,0.213,-0.022999999999999687,0.32470602088658596
2025-03-01 08:34:27.557189,1,1.015,0.754,9.08,2025-03-01 08:34:27.557189,9.167613702594585,0.6323862974054162,1.264413302682315,0.6915072908750364,0.6267490194115449,0.28423992213153204,0.2514229858001799,0.8889999999999999,0.694,-0.5670000000000002,1.262317709611966
2025-03-01 08:34:27.705189,1,1.488,1.311,9.328,2025-03-01 08:34:27.705189,9.536479906128886,0.2635200938711151,1.9831452291751102,1.0171658337426264,0.9039352852942515,0.2785390457368697,0.2553332306604448,0.4730000000000001,0.5569999999999999,0.24799999999999933,0.7716748019729552
2025-03-01 08:34:28.045189,0,-0.462,-0.457,9.636,2025-03-01 08:34:28.045189,9.657887398391015,0.14211260160898576,0.6498407497225763,1.0042848201581058,1.0316021519946534,0.3020198668962133,0.24880064116414025,-1.95,-1.768,0.30799999999999983,2.6501298081414806
2025-03-01 08:34:28.209189,1,0.93,1.348,9.032,2025-03-01 08:34:28.209189,9.179271648665813,0.6207283513341881,1.6376825089131288,0.6961055954379328,0.9376493658790226,0.4586996112199517,0.3824387512154228,1.3920000000000001,1.8050000000000002,-0.6039999999999992,2.3580723059312665
2025-03-01 08:34:28.268189,0,0.255,0.005,9.932,2025-03-01 08:34:28.268189,9.935274228726653,0.13527422872665262,0.255049014897137,0.3959128692023018,0.7150261067494901,0.534011235836849,0.4518016854254814,-0.675,-1.3430000000000002,0.9000000000000004,1.7519343595009491
2025-03-01 08:34:28.612189,0,0.234,0.251,9.98,2025-03-01 08:34:28.612189,9.985897906548013,0.18589790654801241,0.3431573982883073,0.5581078151516357,0.531166012968952,0.2528662360484687,0.3194887371632659,-0.02099999999999999,0.246,0.04800000000000004,0.2515173950246782
2025-03-01 08:34:28.798189,1,1.211,1.023,10.392,2025-03-01 08:34:28.798189,10.512217368376664,0.7122173683766633,1.5852602310030992,0.5135649910186626,0.4191566930556317,0.2528662360484687,0.3152537114795935,0.9770000000000001,0.7719999999999999,0.41199999999999903,1.3115856815320908
2025-03-01 08:34:29.146189,0,0.448,0.354,9.932,2025-03-01 08:34:29.146189,9.94839906718664,0.14839906718663975,0.5709816109122955,0.511252383857522,0.33482383427707146,0.23069532577258403,0.2822629908355768,-0.7630000000000001,-0.6689999999999999,-0.4599999999999991,1.1141499001480901
2025-03-01 08:34:29.297189,1,1.419,0.714,10.131,2025-03-01 08:34:29.297189,10.254780251180422,0.45478025118042176,1.5885077903491691,0.6134549698225608,0.3275545756053479,0.2111137134342354,0.2715028222276301,0.9710000000000001,0.36,0.19899999999999984,1.054534020314186
2025-03-01 08:34:29.776189,0,0.284,0.06,9.709,2025-03-01 08:34:29.776189,9.713338097688148,0.08666190231185311,0.2902688409044278,0.8301845176425132,0.45260394754501765,0.5618917452083944,0.4966393625266691,-1.135,-0.6539999999999999,-0.4220000000000006,1.3762358082828685
2025-03-01 08:34:29.872189,1,1.901,0.929,9.018,2025-03-01 08:34:29.872189,9.262891881048814,0.5371081189511866,2.115854909959565,0.9253174230140339,0.6394077989306458,0.3612095421404941,0.2257817060010958,1.617,0.869,-0.690999999999999,1.9614614449435397
2025-03-01 08:34:29.959189,1,1.872,1.307,9.181,2025-03-01 08:34:29.959189,9.460623340985519,0.3393766590144818,2.2831191383718896,1.0176831530491202,0.6135372849305899,0.47953762452318877,0.3367665243457424,-0.028999999999999915,0.3779999999999999,0.16299999999999848,0.41266693591805903
2025-03-01 08:34:30.312189,0,0.124,0.107,9.918,2025-03-01 08:34:30.312189,9.919352246996777,0.11935224699677605,0.163783393541592,0.9226360784910442,0.6321985447626401,0.3710017969408457,0.23774793793616633,-1.7480000000000002,-1.2,0.7370000000000001,2.2446988662179166
2025-03-01 08:34:30.718189,1,1.51,1.052,9.624,2025-03-01 08:34:30.718189,9.79837639611788,0.0016236038821215715,1.8403271448305054,0.8637507356485044,0.6501463937709206,0.1912859987906259,0.09474618249107195,1.3860000000000001,0.9450000000000001,-0.2939999999999987,1.7030728111269933
2025-03-01 08:34:31.035189,0,-0.076,-0.194,9.983,2025-03-01 08:34:31.035189,9.985174059574526,0.18517405957452482,0.2083554654910689,0.8431217784717298,0.6259986687951764,0.18109205762078343,0.11695828486382787,-1.586,-1.246,0.359,2.0486075758914883
2025-03-01 08:34:31.155189,0,0.221,0.323,9.762,2025-03-01 08:34:31.155189,9.769842066277224,0.03015793372277642,0.3913693907295255,0.1541308967512113,0.33998676444826387,0.15348289807009466,0.15137023660255744,0.297,0.517,-0.22100000000000009,0.6358765603479971
2025-03-01 08:34:31.467189,0,0.001,-0.318,9.688,2025-03-01 08:34:31.467189,9.693217680419645,0.10678231958035589,0.31800157232315696,0.8008695274512567,0.6829204443662035,0.15572518528911206,0.24515923932319475,-0.22,-0.641,-0.07399999999999984,0.6817308853205933
2025-03-01 08:34:31.733189,1,1.485,1.047,9.987,2025-03-01 08:34:31.733189,10.150940990863852,0.350940990863851,1.8169848650993217,0.8688653520540448,0.7002692339379186,0.1806017718628362,0.27355599141638964,1.4840000000000002,1.365,0.2989999999999995,2.0383527663287335
2025-03-01 08:34:32.198189,0,-0.04,0.093,9.662,2025-03-01 08:34:32.198189,9.662530362177396,0.1374696378226048,0.10123734488813899,0.7766378392361092,0.5043950171575181,0.20607361144341144,0.29483518219281124,-1.5250000000000001,-0.954,-0.3249999999999993,1.8279403710187048
2025-03-01 08:34:32.660189,0,0.467,0.286,9.605,2025-03-01 08:34:32.660189,9.620598214248426,0.1794017857515744,0.5476175672857838,0.2676060537431827,0.40849030996258945,0.12820426409964505,0.1331000632257134,0.507,0.19299999999999998,-0.057000000000000384,0.5454786888596108
2025-03-01 08:34:32.825189,0,0.362,-0.498,9.85,2025-03-01 08:34:32.825189,9.869222259124575,0.06922225912457414,0.6156687421008151,0.2174542097392748,0.4612421634383966,0.17750586844757824,0.1737263132093624,-0.10500000000000004,-0.784,0.24499999999999922,0.8280736682204065
2025-03-01 08:34:33.293189,0,0.049,0.315,9.95,2025-03-01 08:34:33.293189,9.955105524302592,0.1551055243025914,0.3187883310285996,0.7038013450778084,0.5487589027371972,0.3734438824419703,0.3106236999256339,-0.313,0.813,0.09999999999999964,0.876891099282003
2025-03-01 08:34:33.614189,1,1.394,0.547,9.259,2025-03-01 08:34:33.614189,9.379313727560243,0.42068627243975776,1.4974795491091022,0.7089196005189863,0.4187986787626399,0.3741047090499292,0.3091270686202717,1.345,0.23200000000000004,-0.690999999999999,1.529813714149536
2025-03-01 08:34:33.973189,0,0.333,-0.266,9.853,2025-03-01 08:34:33.973189,9.862213443238796,0.06221344323879485,0.4261983106489279,0.8224198035877617,0.41241039430806403,0.3026703377163593,0.24268662223919982,-1.061,-0.8130000000000001,0.5939999999999994,1.4627118649959736
2025-03-01 08:34:34.381189,0,-0.225,0.261,9.657,2025-03-01 08:34:34.381189,9.663146226773142,0.13685377322685888,0.34459541494337964,0.2946291454240956,0.3838702037581615,0.09867792728534122,0.09990643047428521,-0.558,0.527,-0.19599999999999973,0.7921546566170018
2025-03-01 08:34:34.686189,0,-0.11,-0.486,9.735,2025-03-01 08:34:34.686189,9.747744405758697,0.05225559424130388,0.4982930864461196,1.233118134378589,0.7530079680853314,0.06589638330996063,0.09671151104185552,0.115,-0.747,0.0779999999999994,0.759814451033935
2025-03-01 08:34:34.839189,1,1.966,1.02,9.604,2025-03-01 08:34:34.839189,9.856082994780431,0.05608299478043044,2.214848979050265,1.148903970457641,0.7600587696575396,0.19901507480589659,0.12428993168784178,2.076,1.506,-0.13100000000000023,2.568067950814386
2025-03-01 08:34:34.956189,0,0.075,0.088,9.995,2025-03-01 08:34:34.956189,9.995668762018877,0.19566876201887595,0.11562439189029276,0.9947647963212201,0.5816863415965684,0.2387934951654499,0.2145818791687418,-1.891,-0.932,0.391,2.144151580462538
2025-03-01 08:34:35.421189,0,0.485,-0.049,9.562,2025-03-01 08:34:35.421189,9.574417475752767,0.22558252424723335,0.4874689733716393,0.9428522330319486,0.6580017730472564,0.2550418266350293,0.21070921179890548,0.41,-0.137,-0.43299999999999983,0.6118480203449218
2025-03-01 08:34:35.513189,1,1.874,1.153,9.545,2025-03-01 08:34:35.513189,9.79532082169849,0.004679178301509879,2.200292026072903,0.697016738201696,0.6014659868465825,0.09247882640548388,0.13215642808746733,1.3890000000000002,1.202,-0.01699999999999946,1.836957811164971
2025-03-01 08:34:35.590189,1,1.282,0.511,9.713,2025-03-01 08:34:35.590189,9.81055625334262,0.010556253342619115,1.3800887652611336,1.1724721745099105,0.5371650894588491,0.08565239829295195,0.07935115632724594,-0.5920000000000001,-0.642,0.16799999999999926,0.8892986000213876
2025-03-01 08:34:35.751189,0,-0.387,0.086,9.658,2025-03-01 08:34:35.751189,9.666133094469577,0.13386690553042335,0.39644041166359417,0.8387754963834669,0.21378259985321452,0.0636893502348057,0.07939319980492232,-1.669,-0.42500000000000004,-0.054999999999999716,1.7231398666388054
2025-03-01 08:34:36.040189,0,0.301,0.339,9.785,2025-03-01 08:34:36.040189,9.795496261037519,0.004503738962482018,0.45334534297817597,0.9511929352134604,0.4050633695279458,0.34224893474390566,0.25601204174435843,0.688,0.253,0.12700000000000067,0.743963708792304
2025-03-01 08:34:36.383189,1,1.493,0.879,9.139,2025-03-01 08:34:36.383189,9.301774615631148,0.4982253843688529,1.7325385998586007,0.6026809548453737,0.5305283529966458,0.40285481255658667,0.3730246573877785,1.1920000000000002,0.54,-0.6460000000000008,1.459376579228268
2025-03-01 08:34:36.490189,1,1.052,1.4,9.879,2025-03-01 08:34:36.490189,10.033012757890821,0.23301275789082077,1.7512007309272115,0.5833869499168896,0.5055792057960192,0.45883911486852763,0.4109226806236826,-0.44100000000000006,0.5209999999999999,0.7400000000000002,1.0067382976722403
2025-03-01 08:34:36.693189,0,0.337,0.389,9.979,2025-03-01 08:34:36.693189,9.992263557372773,0.19226355737277245,0.5146746545148693,0.6144127277327501,0.9423546749145636,0.12477179168383777,0.15615607143452237,-0.7150000000000001,-1.011,0.09999999999999964,1.2423147749262262
2025-03-01 08:34:37.107189,0,-0.171,-0.483,9.731,2025-03-01 08:34:37.107189,9.744480027174358,0.05551997282564258,0.5123768144637304,0.2582692393607856,0.4454406058424987,0.13958151740110933,0.1425764182646599,-0.508,-0.872,-0.24799999999999933,1.0392073902739527
2025-03-01 08:34:37.434189,0,0.002,-0.205,9.744,2025-03-01 08:34:37.434189,9.746156421892683,0.053843578107317214,0.20500975586542214,0.7569572863334706,0.9712857458029533,0.20650504432901554,0.29349376989541615,0.17300000000000001,0.278,0.0129999999999999,0.32769192849382184
2025-03-01 08:34:37.765189,1,1.218,1.321,10.095,2025-03-01 08:34:37.765189,10.25366227257364,0.45366227257363967,1.7968208035305022,0.7897512266530504,0.916360191191215,0.2380217076934883,0.3450836420977438,1.216,1.526,0.35100000000000087,1.982557187069266
2025-03-01 08:34:38.194189,1,1.483,1.437,10.198,2025-03-01 08:34:38.194189,10.40497294566401,0.6049729456640094,2.065007990299311,0.9009367347377938,0.7050250586563102,0.34422231188578206,0.4503800700938978,0.2650000000000001,0.1160000000000001,0.10299999999999976,0.30706676798377264
2025-03-01 08:34:38.303189,0,-0.193,0.162,9.557,2025-03-01 08:34:38.303189,9.56032122891276,0.2396787710872399,0.25197817365795794,0.9682169178443422,0.6508904157639236,0.42768797037091144,0.5137740739359464,-1.6760000000000002,-1.2750000000000001,-0.641,2.201245556497503
2025-03-01 08:34:38.507189,1,1.485,0.572,10.368,2025-03-01 08:34:38.507189,10.489415283989857,0.689415283989856,1.5913544545449327,0.8989334421042148,0.20988806540630084,0.4074240215467495,0.47023218846123166,1.6780000000000002,0.4099999999999999,0.8109999999999999,1.9082727792430516
2025-03-01 08:34:38.845189,0,0.087,0.289,9.894,2025-03-01 08:34:38.845189,9.898602224556758,0.09860222455675682,0.3018111992620552,0.7877063750747048,0.31554133379532523,0.2736640275958628,0.3420297025283885,-1.3980000000000001,-0.283,-0.4740000000000002,1.5030532259371259
2025-03-01 08:34:39.248189,0,0.157,-0.058,9.894,2025-03-01 08:34:39.248189,9.89541555468996,0.09541555468995888,0.16737084572887836,0.9850042301093591,0.40116870931483795,0.4728498704663084,0.3523245382687124,0.07,-0.347,0.0,0.35399011285627735
2025-03-01 08:34:39.479189,1,1.827,0.742,9.075,2025-03-01 08:34:39.479189,9.28677112886928,0.5132288711307211,1.9719262156581823,1.044895369562585,0.5103596770905784,0.41779700014880533,0.3051802684340101,1.67,0.8,-0.8190000000000008,2.024761961317923
2025-03-01 08:34:39.706189,0,-0.096,-0.207,9.628,2025-03-01 08:34:39.706189,9.63070345301941,0.16929654698058982,0.22817756243767703,1.1913842089491247,0.5795984241984554,0.36910206357231645,0.25559246554596854,-1.923,-0.949,0.5530000000000008,2.2145742254437986
2025-03-01 08:34:39.764189,0,-0.353,-0.309,9.775,2025-03-01 08:34:39.764189,9.786251325201086,0.013748674798915062,0.46913750649463104,0.92036206643545,0.5934023368114864,0.19374983870962392,0.13423382356949043,-0.257,-0.10200000000000001,0.14700000000000024,0.31314852706024354
2025-03-01 08:34:40.260189,1,1.354,0.766,9.391,2025-03-01 08:34:40.260189,9.51897856915331,0.28102143084669073,1.5556580601147543,1.0257675175204168,0.57453488434849,0.19707951018139433,0.13415108742861379,1.707,1.075,-0.38400000000000034,2.0535164961596974
2025-03-01 08:34:40.569189,0,-0.485,-0.123,9.66,2025-03-01 08:34:40.569189,9.672949601853615,0.12705039814638575,0.5003538747726453,0.9199262651611441,0.5276668772372707,0.13524175883705833,0.09012392013477781,-1.839,-0.889,0.26900000000000013,2.0602434322186296
2025-03-01 08:34:40.738189,0,0.483,-0.171,9.501,2025-03-01 08:34:40.738189,9.51480588346394,0.2851941165360614,0.5123768144637304,0.48519721076417177,0.2557401024477766,0.2347104599288278,0.2297497872959768,0.968,-0.048000000000000015,-0.1590000000000007,0.9821451012961375
2025-03-01 08:34:41.030189,0,0.058,0.294,9.963,2025-03-01 08:34:41.030189,9.967505655880009,0.16750565588000832,0.29966648127543394,0.21815819947918177,0.2581982442491288,0.2549849668771335,0.24976314514308706,-0.425,0.46499999999999997,0.46199999999999974,0.78121315913136
2025-03-01 08:34:41.140189,0,0.185,0.256,9.919,2025-03-01 08:34:41.140189,9.924027509030797,0.12402750903079607,0.31584964777564656,0.1474528173122918,0.39190432505906253,0.19982325523655114,0.19732152427585797,0.127,-0.03799999999999998,-0.04399999999999871,0.13967462188958982
2025-03-01 08:34:41.210189,0,-0.109,-0.403,9.597,2025-03-01 08:34:41.210189,9.606076150020881,0.19392384997911982,0.4174805384685615,1.0215719912631371,0.48715945370415714,0.16108382910770594,0.18978773680691557,-0.294,-0.659,-0.32200000000000095,0.790190483364613
2025-03-01 08:34:41.275189,1,1.789,0.548,9.767,2025-03-01 08:34:41.275189,9.944602254489618,0.14460225448961772,1.871049170919888,0.9985401010141408,0.9395234607679221,0.46622991467014335,0.5429193698907541,1.898,0.9510000000000001,0.16999999999999993,2.129719465093936
2025-03-01 08:34:41.565189,1,1.378,1.476,10.476,2025-03-01 08:34:41.565189,10.668834800483136,0.8688348004831354,2.0192721460962115,0.8018721843286478,0.8434627041744841,0.4799899304499311,0.5602399721905701,-0.41100000000000003,0.9279999999999999,0.7090000000000014,1.238057349237103
2025-03-01 08:34:41.747189,0,0.241,-0.208,9.561,2025-03-01 08:34:41.747189,9.566298448198237,0.23370155180176333,0.31834729463276423,0.6310644446752892,1.0086849524669894,0.45815754204566717,0.556397527457459,-1.137,-1.684,-0.9150000000000009,2.228418721874325
2025-03-01 08:34:41.930189,0,0.335,-0.328,9.976,2025-03-01 08:34:41.930189,9.987010814052422,0.18701081405242093,0.46883792508712435,0.9607065108554212,0.5012796957122166,0.25797868128976276,0.21295788601357363,0.09400000000000003,-0.12000000000000002,0.4150000000000009,0.44210971488986844
2025-03-01 08:34:42.393189,1,1.95,0.594,9.503,2025-03-01 08:34:42.393189,9.719174090425586,0.08082590957441482,2.0384641277196907,1.1604397155101729,0.4999293283388491,0.2504016773106785,0.1363672599415046,1.615,0.9219999999999999,-0.47300000000000075,1.9188637262713577
2025-03-01 08:34:42.726189,0,-0.301,0.468,9.882,2025-03-01 08:34:42.726189,9.897653711865251,0.09765371186525051,0.5564395744373328,1.1358126312615697,0.33846861006598555,0.1896373732504682,0.08998630743989948,-2.251,-0.12599999999999995,0.37899999999999956,2.2861579123061464
2025-03-01 08:34:43.150189,1,1.089,1.107,9.705,2025-03-01 08:34:43.150189,9.828448249851043,0.028448249851042107,1.552858654224524,0.8010773995064384,0.49660950454054,0.3937245229853075,0.3233778327418041,1.39,0.639,-0.1769999999999996,1.5400487005286552
2025-03-01 08:34:43.321189,1,1.084,1.446,9.129,2025-03-01 08:34:43.321189,9.306159949194942,0.49384005080505844,1.8072000442673744,0.35132653377354023,0.17622239736575607,0.42063166785206213,0.4408994652719643,-0.004999999999999893,0.33899999999999997,-0.5760000000000005,0.6683726505475823
2025-03-01 08:34:43.512189,1,1.695,1.36,9.948,2025-03-01 08:34:43.512189,10.182599324337573,0.3825993243375727,2.173160141360963,0.6442817706562847,0.8469104635871102,0.44186234658922885,0.4413060072962861,0.611,-0.08599999999999985,0.8190000000000008,1.025416013138083
2025-03-01 08:34:43.675189,0,0.407,-0.062,9.826,2025-03-01 08:34:43.675189,9.83462093829752,0.03462093829752,0.4116952756590728,0.8303958895209745,0.8285996218520341,0.21495115724274524,0.343360840987757,-1.288,-1.4220000000000002,-0.12199999999999989,1.9224754874900227
2025-03-01 08:34:43.955189,1,1.959,1.386,10.244,2025-03-01 08:34:43.955189,10.521321827603222,0.7213218276032212,2.399724359171278,0.7760259875373573,0.775432997320422,0.20902870616256197,0.3434412042717351,1.552,1.448,0.41799999999999926,2.163361273574065
2025-03-01 08:34:44.445189,1,1.194,1.143,10.029,2025-03-01 08:34:44.445189,10.164296630854492,0.3642966308544917,1.6529019934648272,0.5871203738019406,0.21370306502247668,0.2155001933486875,0.21011613901883364,-0.7650000000000001,-0.24299999999999988,-0.21499999999999986,0.8309626947101778
2025-03-01 08:34:44.702189,1,0.805,0.96,10.46,2025-03-01 08:34:44.702189,10.534762693103248,0.7347626931032476,1.2528467583866751,0.2790179205714165,0.32685827713755955,0.7385284918900115,0.7252624028811723,-0.3889999999999999,-0.18300000000000005,0.43100000000000094,0.6087454311943546
2025-03-01 08:34:45.122189,1,1.346,0.508,9.021,2025-03-01 08:34:45.122189,9.134999781061847,0.6650002189381539,1.438672999677133,0.525576191748952,0.5772428720506929,0.7236783355423434,0.7003912052036337,0.541,-0.45199999999999996,-1.439,1.6024063155142645
2025-03-01 08:34:45.201189,0,0.295,-0.186,9.875,2025-03-01 08:34:45.201189,9.881156106448273,0.08115610644827242,0.348742024998422,0.5398953602319597,0.6397885067218173,0.44294582061468035,0.4022493458580465,-1.0510000000000002,-0.694,0.8539999999999992,1.5216941216946325
2025-03-01 08:34:45.570189,1,1.035,1.092,9.652,2025-03-01 08:34:45.570189,9.76856146011274,0.031438539887259864,1.5045560807095228,0.492881324458533,0.6908902469519548,0.4395941309890443,0.39058178851642916,0.74,1.278,-0.22300000000000075,1.4935236857847283
2025-03-01 08:34:45.934189,1,1.229,0.908,9.027,2025-03-01 08:34:45.934189,9.155415555833606,0.6445844441663944,1.5280395937278588,0.536539218821263,0.5977516206586142,0.41940791599588756,0.37183766337343066,0.19400000000000017,-0.18400000000000005,-0.625,0.6797918799161992
2025-03-01 08:34:46.278189,0,0.218,-0.023,9.824,2025-03-01 08:34:46.278189,9.826445389865045,0.026445389865044078,0.21920994502987312,0.7993428551003622,0.6312561550855027,0.45785623653429186,0.3874816084526485,-1.0110000000000001,-0.931,0.7970000000000006,1.588738807985756
2025-03-01 08:34:46.528189,0,-0.349,-0.296,9.816,2025-03-01 08:34:46.528189,9.826661335367167,0.02666133536716586,0.45762102224438944,0.9016508932693029,0.9546428651595313,0.09188579868510899,0.20795918423157977,-0.567,-0.27299999999999996,-0.007999999999999119,0.6293504588065381
2025-03-01 08:34:46.679189,1,1.417,1.477,9.979,2025-03-01 08:34:46.679189,10.186749187056682,0.38674918705668127,2.0468067813059445,1.0063072758026408,0.9014837768922962,0.23431246943630163,0.33046218221996465,1.766,1.7730000000000001,0.16299999999999848,2.5077587603276354
2025-03-01 08:34:46.913189,0,-0.302,0.307,9.517,2025-03-01 08:34:46.913189,9.526738266584214,0.2732617334157865,0.43064254318401934,0.8911185854493955,0.6017228043986145,0.4392007893132096,0.5136735507063099,-1.719,-1.1700000000000002,-0.46199999999999974,2.1300950683009434
2025-03-01 08:34:47.159189,1,0.965,0.648,9.101,2025-03-01 08:34:47.159189,9.174929427521501,0.6250705724784993,1.1623807465714493,1.0477653999504521,0.5296234511424128,0.496048384736824,0.5933499399759071,1.267,0.341,-0.4159999999999986,1.37645414017322
2025-03-01 08:34:47.528189,1,1.777,1.346,10.089,2025-03-01 08:34:47.528189,10.332345619461247,0.5323456194612461,2.229225201723684,0.7876270267920792,0.8841289498710012,0.49525380698521004,0.5808751961435465,0.8119999999999999,0.6980000000000001,0.9879999999999995,1.4569461211726393
2025-03-01 08:34:48.020189,0,0.202,-0.41,9.656,2025-03-01 08:34:48.020189,9.666811263286359,0.13318873671364173,0.45706017109347863,0.7924710299647115,0.8782194107017521,0.3096713311453594,0.42597285816395675,-1.575,-1.756,-0.43299999999999983,2.398259785761334
2025-03-01 08:34:48.334189,1,0.836,0.502,9.489,2025-03-01 08:34:48.334189,9.538973791766074,0.2610262082339272,0.9751410154434075,0.6440258793971954,0.8797001383047138,0.35717362724591556,0.44784417573353275,0.6339999999999999,0.9119999999999999,-0.16699999999999982,1.1232047898758266
2025-03-01 08:34:48.723189,1,1.49,1.349,10.174,2025-03-01 08:34:48.723189,10.37064014417625,0.5706401441762488,2.0099504969028468,0.3928171754561277,0.4440904562511261,0.36661560250485714,0.4390558418743812,0.654,0.847,0.6849999999999987,1.2705707378969493
2025-03-01 08:34:48.813189,1,1.54,0.694,10.058,2025-03-01 08:34:48.813189,10.198852876671964,0.39885287667196323,1.6891524501950674,0.7036568766096137,0.6580022796313093,0.1125181466845573,0.20965540028694957,0.050000000000000044,-0.655,-0.11599999999999966,0.6670689619522108
2025-03-01 08:34:49.065189,0,0.297,0.033,9.949,2025-03-01 08:34:49.065189,9.953486775999655,0.15348677599965477,0.29882770955853477,0.6629195526859428,0.3824974945451705,0.06536308846229812,0.12346212177903598,-1.243,-0.6609999999999999,-0.10899999999999999,1.4120378890100649
2025-03-01 08:34:49.446189,1,1.318,0.697,9.941,2025-03-01 08:34:49.446189,10.052184538696055,0.2521845386960546,1.49095036805388,0.8814024808981035,0.5225810941853896,0.008504900548012593,0.058876262811357716,1.0210000000000001,0.6639999999999999,-0.007999999999999119,1.217949506342525
2025-03-01 08:34:49.862189,0,-0.437,-0.334,9.932,2025-03-01 08:34:49.862189,9.947218153835776,0.14721815383577486,0.550022726803175,0.9638134328454506,0.5987422929218649,0.13084723917607416,0.17014153380741845,-1.7550000000000001,-1.031,-0.009000000000000341,2.0354525295373507
2025-03-01 08:34:50.158189,0,-0.25,-0.346,9.71,2025-03-01 08:34:50.158189,9.71937837518429,0.080621624815711,0.42686766099108514,1.1771835031124072,0.7517339955063885,0.40854375530658726,0.30438854673529075,0.187,-0.011999999999999955,-0.22199999999999953,0.29051161766786504
2025-03-01 08:34:50.653189,1,1.689,0.962,9.14,2025-03-01 08:34:50.653189,9.344397519369561,0.4556024806304393,1.9437502411575414,1.0907002337947849,0.6576594863605324,0.41942977163446765,0.31404937329344285,1.939,1.3079999999999998,-0.5700000000000003,2.407381357408917
2025-03-01 08:34:50.947189,0,-0.146,0.428,9.958,2025-03-01 08:34:50.947189,9.968262837626224,0.16826283762622296,0.4522167621838005,1.0866601738047321,0.37822524153384246,0.4277584988440848,0.31582801226293084,-1.835,-0.534,0.8179999999999996,2.078822984287022
2025-03-01 08:34:51.041189,1,1.78,1.159,9.332,2025-03-01 08:34:51.041189,9.570679442965375,0.22932055703462595,2.124071797279932,0.9682256968289975,0.3676334224922067,0.3776519561713014,0.3089287169619082,1.926,0.7310000000000001,-0.6259999999999994,2.153070598006484
2025-03-01 08:34:51.443189,1,0.991,0.725,9.279,2025-03-01 08:34:51.443189,9.359890330554093,0.4401096694459081,1.227886802600305,0.7965117701578538,0.4102340795204611,0.1527165129687921,0.12261914474227868,-0.789,-0.43400000000000005,-0.053000000000000824,0.9020454534002155
2025-03-01 08:34:51.585189,0,0.187,0.339,9.566,2025-03-01 08:34:51.585189,9.57383131248927,0.2261686875107305,0.3871562991867755,0.4140837274432936,0.6032818578409261,0.17113250227044843,0.13308353795518546,-0.804,-0.38599999999999995,0.2870000000000008,0.9368996744582637
2025-03-01 08:34:51.664189,0,0.417,-0.458,9.584,2025-03-01 08:34:51.664189,9.603994429402798,0.1960055705972028,0.6193972876918336,0.8616101206462224,0.8546338397231878,0.3638419986752539,0.4883691340531812,0.22999999999999998,-0.797,0.017999999999998906,0.8297186270055651
2025-03-01 08:34:51.715189,1,1.781,1.25,10.205,2025-03-01 08:34:51.715189,10.434389584446231,0.6343895844462306,2.1758816603850493,0.9414081651087011,0.854568897163944,0.31121428844661636,0.4176308084728027,1.3639999999999999,1.708,0.6210000000000004,2.2723118183911293
2025-03-01 08:34:52.145189,0,-0.025,0.45,9.931,2025-03-01 08:34:52.145189,9.941221554718513,0.14122155471851272,0.45069390943299864,1.028564695745159,0.7378970117841648,0.1440324037615501,0.27089318799509554,-1.8059999999999998,-0.8,-0.2740000000000009,1.9941695013212895
2025-03-01 08:34:52.287189,0,0.025,-0.224,9.991,2025-03-01 08:34:52.287189,9.993542014721307,0.19354201472130583,0.22539077177204928,1.0845519812346471,0.44789433277652985,0.3914400762994725,0.2748150666957648,0.05,-0.674,0.0600000000000005,0.6785101325698829
2025-03-01 08:34:52.630189,1,1.878,0.624,9.285,2025-03-01 08:34:52.630189,9.4935496522639,0.30645034773610114,1.978954269304877,1.0270123335838435,0.49939196362509936,0.360072214979169,0.2503355709055264,1.853,0.848,-0.7059999999999995,2.156652266824673
2025-03-01 08:34:52.851189,0,0.184,-0.257,9.761,2025-03-01 08:34:52.851189,9.766116218845646,0.033883781154354864,0.31607752213657964,0.9088945666760972,0.7379636395740193,0.28868725869588296,0.16943635611076946,-1.694,-0.881,0.4759999999999991,1.9678345967077617
2025-03-01 08:34:53.042189,1,1.602,1.209,9.24,2025-03-01 08:34:53.042189,9.455457947661763,0.3445420523382374,2.007008968589827,0.7091842731852783,0.9288004809071394,0.5360699581211424,0.5095025384867361,1.4180000000000001,1.4660000000000002,-0.520999999999999,2.1050703076144512
2025-03-01 08:34:53.522189,1,0.865,1.464,10.312,2025-03-01 08:34:53.522189,10.451261407122107,0.6512614071221066,1.700447294096468,0.6638948209869779,0.9099320487450331,0.5440992556510276,0.49792870372474235,-0.7370000000000001,0.2549999999999999,1.0719999999999992,1.3256613443862646
2025-03-01 08:34:53.945189,0,0.277,-0.224,9.938,2025-03-01 08:34:53.945189,9.944382786276885,0.14438278627688383,0.3562372804746859,0.5167217174972729,0.9582630119127002,0.5397641460242947,0.5030676612811164,-0.588,-1.688,-0.3739999999999988,1.8261883802061603
2025-03-01 08:34:54.308189,1,1.307,1.406,9.248,2025-03-01 08:34:54.308189,9.445135732216874,0.3548642677831264,1.9196575215386729,0.77323476383308,0.8514701012562526,0.3520018939343092,0.2499712814263824,1.0299999999999998,1.63,-0.6900000000000013,2.0479013648122804
2025-03-01 08:34:54.705189,0,-0.207,0.164,9.714,2025-03-01 08:34:54.705189,9.717589258658755,0.0824107413412456,0.26409278672466613,0.9527418328172641,0.7886458858913379,0.2470026990406023,0.13954759871861902,-1.514,-1.242,0.4660000000000011,2.0129371574890262
2025-03-01 08:34:55.043189,0,-0.452,-0.057,9.623,2025-03-01 08:34:55.043189,9.633778178887034,0.16622182111296624,0.455579850300691,0.16045664004127055,0.1464615990626873,0.06182502190327155,0.060670505133437386,-0.24500000000000002,-0.221,-0.09100000000000108,0.34226743929272646
2025-03-01 08:34:55.486189,0,-0.15,0.22,9.596,2025-03-01 08:34:55.486189,9.599693536775016,0.2003064632249849,0.26627053911388693,0.26585961207624914,0.25144847053289626,0.03318132004617892,0.03645676836723583,0.30200000000000005,0.277,-0.026999999999999247,0.4106847939722142
2025-03-01 08:34:55.825189,0,0.078,0.445,9.662,2025-03-01 08:34:55.825189,9.672556694070085,0.1274433059299156,0.45178424053966293,0.6032312989227261,0.5958610016885929,0.41066937228546235,0.4840558215812485,0.22799999999999998,0.225,0.06600000000000072,0.3270550412392386
2025-03-01 08:34:56.188189,1,0.99,1.346,10.338,2025-03-01 08:34:56.188189,10.472156415944138,0.6721564159441371,1.6708728258009347,0.6732933981556625,0.7068811781339208,0.3405466194223639,0.4077696705883855,0.912,0.901,0.6759999999999984,1.4493174255490058
2025-03-01 08:34:56.652189,0,-0.324,-0.048,9.928,2025-03-01 08:34:56.652189,9.933401431533914,0.1334014315339136,0.32753625753494836,0.6586622806871509,0.9359756050952039,0.3002637729286258,0.36687715650939706,-1.314,-1.3940000000000001,-0.40999999999999837,1.9590640622501345
2025-03-01 08:34:57.051189,0,0.414,-0.433,9.753,2025-03-01 08:34:57.051189,9.771381376243585,0.028618623756415218,0.5990701127580979,0.7869983058008018,0.8446634438244224,0.12495199078046862,0.18584050310130412,0.738,-0.385,-0.1750000000000007,0.850584504914121
2025-03-01 08:34:57.418189,1,1.249,1.184,9.995,2025-03-01 08:34:57.418189,10.142084696944705,0.34208469694470445,1.7210046484539199,0.5475098172635797,0.8732370812099082,0.12139741897312255,0.18871000811620292,0.8350000000000002,1.617,0.2419999999999991,1.835886162048181
2025-03-01 08:34:57.698189,0,0.218,-0.196,9.891,2025-03-01 08:34:57.698189,9.895343399801746,0.09534339980174522,0.2931552489722809,0.5859542075395755,0.7173794904604768,0.05205125678919593,0.1308166104699606,-1.0310000000000001,-1.38,-0.1039999999999992,1.725739551612583
2025-03-01 08:34:58.150189,0,0.251,0.154,9.939,2025-03-01 08:34:58.150189,9.943361504038762,0.14336150403876147,0.29447750338523315,0.7648784217115805,0.8620361554675845,0.17257268999855344,0.046445496513484126,0.033,0.35,0.04800000000000004,0.3548140357990366
2025-03-01 08:34:58.628189,1,1.559,1.441,9.619,2025-03-01 08:34:58.628189,9.850488465045782,0.050488465045781084,2.122960668500479,0.7398083085052037,0.6502202191052918,0.16012599206043157,0.04659386298249779,1.3079999999999998,1.2870000000000001,-0.3200000000000003,1.8626950904536148
2025-03-01 08:34:58.860189,1,1.504,0.636,9.768,2025-03-01 08:34:58.860189,9.903551686137657,0.10355168613765642,1.6329458043670648,0.13250031446502283,0.4422763088085704,0.07572538103792156,0.03755624669942634,-0.05499999999999994,-0.805,0.1490000000000009,0.8205187383600695
2025-03-01 08:34:59.154189,1,1.307,0.721,9.717,2025-03-01 08:34:59.154189,9.830980571641875,0.030980571641874732,1.4926788000102367,0.8501005822842362,0.16631396012762575,0.028112867753715968,0.08695667212915069,-0.19700000000000006,0.08499999999999996,-0.051000000000000156,0.2205334441757078
2025-03-01 08:34:59.554189,0,-0.057,0.4,9.722,2025-03-01 08:34:59.554189,9.730392232587542,0.06960776741245844,0.4040408395199674,0.9052316462283733,0.2953816739971077,0.2283557166644611,0.15785421476444542,-1.3639999999999999,-0.32099999999999995,0.004999999999999005,1.4012715654005115
2025-03-01 08:34:59.904189,1,1.656,0.99,9.324,2025-03-01 08:34:59.904189,9.521523617572978,0.2784763824270229,1.92936155243127,0.9807366279146154,0.35180439640989947,0.47497789422246134,0.4863397040864174,1.7129999999999999,0.59,-0.3979999999999997,1.8549590291971407
2025-03-01 08:35:00.089189,1,1.627,1.027,10.27,2025-03-01 08:35:00.089189,10.44867254726647,0.6486725472664698,1.9240213096532999,0.02510644007679559,0.052175984258410135,0.549670204152758,0.5382248688025297,-0.028999999999999915,0.03699999999999992,0.9459999999999997,0.9471673558563974
2025-03-01 08:35:00.511189,1,1.677,0.924,10.282,2025-03-01 08:35:00.511189,10.458758482726331,0.6587584827263306,1.9147075494706758,0.061329710037873714,0.06898550572403264,0.08335466393668416,0.06824590645738321,0.050000000000000044,-0.10299999999999987,0.012000000000000455,0.11512167476196647
2025-03-01 08:35:00.942189,1,1.749,1.055,10.132,2025-03-01 08:35:00.942189,10.33583329973931,0.5358332997393092,2.0425537936612588,0.7623754543093125,0.7594473868105239,0.18346207600845682,0.2766983212307179,0.07200000000000006,0.1309999999999999,-0.15000000000000036,0.2117663807123314
2025-03-01 08:35:01.425189,0,0.394,-0.321,9.917,2025-03-01 08:35:01.425189,9.930013393747261,0.1300133937472605,0.5082096024279746,1.097503075166534,0.7499602211673184,0.12804816802022023,0.23899398428699392,-1.355,-1.376,-0.21499999999999986,1.943097012503493
2025-03-01 08:35:01.812189,0,-0.424,-0.15,9.904,2025-03-01 08:35:01.812189,9.914206574406244,0.11420657440624282,0.44975104224448437,0.692547711954442,0.9377698722678892,0.20592798093832204,0.2779489707341153,-0.8180000000000001,0.171,-0.0129999999999999,0.8357834647802025
2025-03-01 08:35:01.884189,1,0.953,1.382,10.267,2025-03-01 08:35:01.884189,10.403337060770452,0.6033370607704516,1.6787295791758718,0.7192720857459527,0.7702527723632896,0.2155837037749701,0.2878235250470879,1.377,1.5319999999999998,0.36299999999999955,2.0916314206857765
2025-03-01 08:35:02.007189,0,-0.096,0.476,9.884,2025-03-01 08:35:02.007189,9.895920775754018,0.09592077575401703,0.48558418425644795,0.7352679783589098,0.45610342394388365,0.5855877389426832,0.5779744681695295,-1.049,-0.9059999999999999,-0.3829999999999991,1.4380285115393223
2025-03-01 08:35:02.393189,1,1.321,0.837,9.117,2025-03-01 08:35:02.393189,9.250151296059974,0.549848703940027,1.5638446214378203,0.8787902669768999,0.1887334981748967,0.5842798986787102,0.5716381818797118,1.417,0.361,-0.7669999999999995,1.6512113735073408
2025-03-01 08:35:02.693189,1,1.513,0.561,10.264,2025-03-01 08:35:02.693189,10.390071510822242,0.5900715108222414,1.6136573366114628,0.3566852020105823,0.15049695456498072,0.5778799615837235,0.579759749213568,0.19199999999999995,-0.2759999999999999,1.1469999999999985,1.1952610593506325
2025-03-01 08:35:02.809189,1,0.822,0.803,9.5675,2025-03-01 08:35:02.809189,9.63626220326118,0.16373779673882005,1.1491270599894512,0.7020287268576203,0.4707678125502353,0.3537627500646937,0.3948766230516407,-0.691,0.242,-0.6964999999999986,1.0105232555463521
2025-03-01 08:35:02.867189,0,0.109,-0.106,9.808,2025-03-01 08:35:02.867189,9.809178405962449,0.00917840596244801,0.1520427571441665,0.4673788613106072,0.46262331689327263,0.13499290104793646,0.09630381549417653,-0.713,-0.909,0.24049999999999905,1.1800382409057766
2025-03-01 08:35:03.225189,0,-0.058,0.199,9.794,2025-03-01 08:35:03.225189,9.796193189193444,0.0038068108065569817,0.20728000385951367,1.1194252989815794,0.6781467392828784,0.1018544713467978,0.2508501779098108,-0.167,0.305,-0.013999999999999346,0.3480086205828815
2025-03-01 08:35:03.605189,1,1.959,1.191,9.977,2025-03-01 08:35:03.605189,10.23702549571896,0.43702549571895943,2.2926321117876722,1.076362547347933,0.5088735926861737,0.2131814563542932,0.3393753076644649,2.017,0.992,0.18299999999999983,2.2551811457175677
2025-03-01 08:35:03.690189,0,0.299,0.498,9.552,2025-03-01 08:35:03.690189,9.56964518673498,0.23035481326501994,0.580865733194858,0.8583590934645767,0.3754717033279613,0.24253865671270453,0.3520940026113415,-1.6600000000000001,-0.6930000000000001,-0.4250000000000007,1.8483706338286163
2025-03-01 08:35:03.876189,1,1.508,0.594,9.967,2025-03-01 08:35:03.876189,10.097920033353404,0.2979200333534031,1.62077142126828,0.668282126051563,0.048345975358179485,0.21356107635366792,0.2741797732722246,1.209,0.09599999999999997,0.4150000000000009,1.2818432041400387
2025-03-01 08:35:04.292189,1,1.397,0.556,9.847,2025-03-01 08:35:04.292189,9.961132164568442,0.16113216456844093,1.5035774007346612,0.6665560741603043,0.3330960822345412,0.2257793908516395,0.2937135698554899,-0.11099999999999999,-0.03799999999999992,-0.120000000000001,0.16782431289893676
2025-03-01 08:35:04.774189,0,0.302,-0.001,9.53,2025-03-01 08:35:04.774189,9.534783951406554,0.2652160485934463,0.30200165562460085,0.6299018442053734,0.4204192352085399,0.45758751439843176,0.5130231218935417,-1.095,-0.557,-0.31700000000000017,1.2687643595246518
2025-03-01 08:35:04.972189,1,1.389,0.823,10.432,2025-03-01 08:35:04.972189,10.556196000453951,0.7561960004539507,1.6145123102658587,0.6052985489271642,0.4269535493860352,0.5417880889548397,0.579815448992411,1.087,0.824,0.902000000000001,1.6352825443940877
2025-03-01 08:35:05.208189,1,1.307,0.605,9.461,2025-03-01 08:35:05.208189,9.569994514105012,0.23000548589498848,1.4402340087638537,0.14450259513239216,0.10944100389403326,0.5377518014846664,0.5353048384166973,-0.08200000000000007,-0.21799999999999997,-0.9710000000000001,0.9985434392153404
2025-03-01 08:35:05.664189,1,1.588,0.697,9.546,2025-03-01 08:35:05.664189,9.702250718261201,0.09774928173879971,1.734229800228332,1.003218321204312,0.1184187485155977,0.07427202254781631,0.06649910710254268,0.28100000000000014,0.09199999999999997,0.08499999999999908,0.30765240125830307
2025-03-01 08:35:05.855189,0,-0.273,0.462,9.609,2025-03-01 08:35:05.855189,9.623972880261041,0.17602711973895957,0.5366311582455868,0.9460110993006363,0.21434318277006253,0.497231334491303,0.49520013320301914,-1.8610000000000002,-0.23499999999999993,0.06300000000000061,1.876836434002708
2025-03-01 08:35:05.929189,1,0.953,0.89,10.437,2025-03-01 08:35:05.929189,10.518140424999087,0.7181404249990866,1.3039589717471942,0.9147464129473252,0.4170483585069409,0.7095049917606919,0.6546595518740707,1.226,0.428,0.8279999999999994,1.540079218741685
2025-03-01 08:35:06.222189,1,1.516,1.296,9.025,2025-03-01 08:35:06.222189,9.24275375632176,0.5572462436782413,1.9944603280085567,0.5104354350290831,0.27604528613979396,0.7297734808372636,0.6907268057562388,0.5630000000000001,0.406,-1.411999999999999,1.5733877462342196
2025-03-01 08:35:06.275189,1,1.972,1.417,10.051,2025-03-01 08:35:06.275189,10.34017765804824,0.5401776580482398,2.4283066116122978,0.3081303836581663,0.36161074836533,0.561406566877642,0.5696147247234786,0.45599999999999996,0.121,1.0259999999999998,1.1292710037896128
2025-03-01 08:35:06.435189,1,1.385,0.739,9.933,2025-03-01 08:35:06.435189,10.056283359174005,0.25628335917400413,1.569823556964285,1.2359540174833894,0.6059876236359952,0.08796211305633239,0.227940734057612,-0.587,-0.678,-0.11800000000000033,0.9045313703791594
2025-03-01 08:35:06.740189,0,-0.401,0.208,9.879,2025-03-01 08:35:06.740189,9.889322828181918,0.08932282818191695,0.45173554210400585,0.9962549874404643,0.3498099484005569,0.06269237061506415,0.12480248861889151,-1.786,-0.531,-0.05400000000000027,1.8640474779361174
2025-03-01 08:35:06.948189,0,-0.273,0.079,9.808,2025-03-01 08:35:06.948189,9.812116693150362,0.012116693150360902,0.28420063335608525,0.32223024894217156,0.33450112107435465,0.17991757372013148,0.17798819879493458,0.128,-0.129,-0.07099999999999973,0.1951050998820891
2025-03-01 08:35:07.012189,0,0.21,-0.425,9.538,2025-03-01 08:35:07.012189,9.549773243381228,0.2502267566187726,0.4740516849458506,0.24810548831763757,0.3582331642938717,0.1363378157372601,0.13289864502232124,0.483,-0.504,-0.2699999999999996,0.7484684362082343
2025-03-01 08:35:07.160189,0,0.067,0.268,9.64,2025-03-01 08:35:07.160189,9.643957330888602,0.15604266911139852,0.2762480769163833,0.1860492766267385,0.46017641544665616,0.13419885742188906,0.13923739949437042,-0.143,0.6930000000000001,0.10200000000000031,0.7149139808396533
2025-03-01 08:35:07.640189,0,0.436,0.446,9.804,2025-03-01 08:35:07.640189,9.82381942016444,0.02381942016443972,0.6237082651368346,0.6361579992423252,0.17950208912433424,0.3268414498397392,0.27286303801563844,0.369,0.178,0.1639999999999997,0.44129468612254996
2025-03-01 08:35:07.993189,1,1.306,0.627,9.174,2025-03-01 08:35:07.993189,9.287682218939233,0.5123177810607675,1.4487114964684997,0.7265762176124375,0.5226034187922367,0.3819035654891759,0.28001882240881354,0.8700000000000001,0.181,-0.6300000000000008,1.089293807932461
2025-03-01 08:35:08.323189,1,1.879,1.428,9.115,2025-03-01 08:35:08.323189,9.415574862959776,0.38442513704022474,2.3600476690100987,0.9978187878233853,0.7138517586539476,0.31172477176725283,0.20128645860602762,0.573,0.8009999999999999,-0.058999999999999275,0.9866159333803604
2025-03-01 08:35:08.679189,0,-0.063,0.004,9.682,2025-03-01 08:35:08.679189,9.682205792070318,0.11779420792968232,0.06312685640834652,1.0810260558068578,0.8175671226266382,0.2995402032004118,0.13369813851278578,-1.942,-1.424,0.5670000000000002,2.473990501194376
2025-03-01 08:35:08.946189,0,0.085,0.02,9.566,2025-03-01 08:35:08.946189,9.566398538635113,0.2336014613648878,0.0873212459828649,1.0464689834549954,0.6599598472634531,0.5039116986139586,0.6294904443194502,0.14800000000000002,0.016,-0.11599999999999966,0.18872201779336698
2025-03-01 08:35:09.100189,1,1.819,1.155,10.491,2025-03-01 08:35:09.100189,10.709989122310068,0.9099891223100673,2.154712509825847,0.9505598350445899,0.8089439618004042,0.5372525787126005,0.6598349134445338,1.734,1.135,0.9249999999999989,2.2694946574072383
2025-03-01 08:35:09.331189,0,0.277,-0.411,9.555,2025-03-01 08:35:09.331189,9.56784589131744,0.23215410868256114,0.49563091106185053,0.780207664663708,0.9305747328040527,0.4689992892674122,0.572005637501214,-1.5419999999999998,-1.566,-0.9359999999999999,2.388768720491793
2025-03-01 08:35:09.776189,1,0.841,1.243,9.97,2025-03-01 08:35:09.776189,10.082322649072484,0.2823226490724835,1.5007764657003388,0.7277398802685824,0.8665046643459768,0.20868716619222197,0.2739729697966188,0.564,1.6540000000000001,0.4150000000000009,1.7961172010756987
2025-03-01 08:35:10.235189,1,1.721,0.864,9.801,2025-03-01 08:35:10.235189,9.988390160581433,0.18839016058143265,1.9257042867480978,0.4400852190201303,0.24121428923953503,0.49256505492507424,0.46910573401260436,0.8800000000000001,-0.3790000000000001,-0.16900000000000048,0.9729347357351368
2025-03-01 08:35:10.641189,1,1.266,1.312,9.045,2025-03-01 08:35:10.641189,9.2269239186199,0.5730760813801012,1.823211452355431,0.2936159623272021,0.3492009927439124,0.564425371506284,0.5256873454314036,-0.45500000000000007,0.44800000000000006,-0.7560000000000002,0.9895781929691057
2025-03-01 08:35:11.134189,1,1.172,0.624,10.149,2025-03-01 08:35:11.134189,10.235485381749124,0.4354853817491229,1.3277650394554,0.914576586915132,0.5694453441727315,0.5609637540281369,0.5050174531796107,-0.09400000000000008,-0.6880000000000001,1.1039999999999992,1.3042223736771266
2025-03-01 08:35:11.210189,0,-0.363,0.182,9.77,2025-03-01 08:35:11.210189,9.778435099748835,0.021564900251165753,0.40607019097688024,0.8209118913338583,0.5130714700052362,0.30119816289834594,0.299185592993763,-1.535,-0.442,-0.37899999999999956,1.6417155661076006
2025-03-01 08:35:11.329189,1,0.909,1.205,9.554,2025-03-01 08:35:11.329189,9.67249822951651,0.12750177048349087,1.5094058433701654,0.8806272385824392,0.5182589442868633,0.2419483415938349,0.1847956254159603,1.272,1.0230000000000001,-0.2159999999999993,1.646562783497793
2025-03-01 08:35:11.797189,1,1.328,0.838,9.287,2025-03-01 08:35:11.797189,9.418821423086861,0.3811785769131397,1.5702955135897192,0.8107122383024276,0.4304908051670024,0.2750387851437322,0.21483737585637716,0.41900000000000004,-0.3670000000000001,-0.26699999999999946,0.6176884327879225
2025-03-01 08:35:12.173189,0,-0.238,0.347,9.837,2025-03-01 08:35:12.173189,9.845995226486757,0.045995226486756025,0.4207766628509713,0.8082235664303121,0.5536397745827157,0.28955367953686845,0.22013076242770582,-1.566,-0.491,0.5499999999999989,1.7308775231078595
2025-03-01 08:35:12.291189,0,0.198,-0.267,9.719,2025-03-01 08:35:12.291189,9.724682719760064,0.07531728023993622,0.33240487361048127,0.6999228528916597,0.5512398147207198,0.16937925886405916,0.21952754821283668,0.436,-0.614,-0.11800000000000033,0.762244055404829
2025-03-01 08:35:12.507189,1,1.132,0.833,10.053,2025-03-01 08:35:12.507189,10.150769527479186,0.35076952747918533,1.4054582882462217,0.4797106766930795,0.628830660830084,0.21516815129878827,0.2646463087856905,0.9339999999999999,1.1,0.3340000000000014,1.4811860112760993
2025-03-01 08:35:12.629189,0,0.475,-0.245,9.651,2025-03-01 08:35:12.629189,9.665787655437088,0.1342123445629131,0.5344623466625128,0.4108904963612552,0.6270534267508631,0.20314526821957907,0.2488215689012102,-0.6569999999999999,-1.0779999999999998,-0.402000000000001,1.324891316297303
2025-03-01 08:35:12.981189,0,0.376,-0.261,9.801,2025-03-01 08:35:12.981189,9.811681711103352,0.011681711103351589,0.4577084224700262,0.502142410079054,0.4105739884600582,0.0833546639367272,0.07953245894871135,-0.09899999999999998,-0.016000000000000014,0.15000000000000036,0.18043558407365246
2025-03-01 08:35:13.242189,0,-0.44,0.458,9.663,2025-03-01 08:35:13.242189,9.683849079782274,0.1161509202177271,0.635109439388205,0.4476430869937962,0.40646156029814207,0.06900241541669441,0.0639193527898687,-0.8160000000000001,0.7190000000000001,-0.1379999999999999,1.0962942123353567
2025-03-01 08:35:13.310189,0,-0.351,0.427,9.731,2025-03-01 08:35:13.310189,9.746686154791279,0.053313845208721844,0.5527476820394636,0.43960095541297683,0.35396657092631434,0.17084886108294098,0.1645337273736762,0.08900000000000002,-0.031000000000000028,0.06799999999999962,0.11621531740695783
2025-03-01 08:35:13.553189,0,0.362,-0.17,9.987,2025-03-01 08:35:13.553189,9.99500440220013,0.19500440220013004,0.3999299938739279,0.636116603566778,0.41989641579799203,0.24606774135050327,0.26894820822671994,0.713,-0.597,0.2560000000000002,0.9645278637758476
2025-03-01 08:35:13.943189,1,0.918,0.64,10.223,2025-03-01 08:35:13.943189,10.284067920818105,0.484067920818104,1.1190728305164057,0.4943399639923903,0.5251399813383097,0.5407303702709308,0.4920242494940544,0.556,0.81,0.23600000000000065,1.010411797239126
2025-03-01 08:35:14.180189,1,1.348,0.814,9.191,2025-03-01 08:35:14.180189,9.3249225734051,0.4750774265949005,1.5747063218263906,0.9293422405120726,0.437138803280301,0.5160116277759688,0.48262234878747207,0.43000000000000005,0.17399999999999993,-1.032,1.1314592347937242
2025-03-01 08:35:14.273189,0,-0.433,-0.015,9.701,2025-03-01 08:35:14.273189,9.71067016224936,0.08932983775064152,0.4332597373400856,0.9328831652463233,0.4718477861909853,0.32715949219507245,0.2769948463513997,-1.7810000000000001,-0.829,0.5099999999999998,2.0296063657763788
2025-03-01 08:35:14.524189,1,0.939,0.79,9.091,2025-03-01 08:35:14.524189,9.173445481388113,0.6265545186118882,1.2271189836360612,1.0854548969594875,0.468269509292815,0.30542811483774385,0.2766195995483904,1.3719999999999999,0.805,-0.6100000000000012,1.703675145090754
2025-03-01 08:35:14.906189,1,1.71,0.802,9.368,2025-03-01 08:35:14.906189,9.55650187045448,0.24349812954551986,1.8887307907692934,0.8765392176052351,0.5479382568623345,0.33141565040495213,0.2944225865471977,0.771,0.01200000000000001,0.277000000000001,0.8193375372824075
2025-03-01 08:35:15.172189,0,-0.039,-0.153,9.751,2025-03-01 08:35:15.172189,9.752278246645755,0.04772175335424578,0.1578923684032892,0.9296796939448189,0.5823873281588468,0.29143152426142444,0.1954582801100973,-1.7489999999999999,-0.9550000000000001,0.3829999999999991,2.029215365603168
2025-03-01 08:35:15.342189,0,0.289,-0.253,9.94,2025-03-01 08:35:15.342189,9.94741825802052,0.14741825802051878,0.384096342080994,0.17085764054713543,0.3123331554606397,0.2072607053930002,0.206807807312396,0.32799999999999996,-0.1,0.18900000000000006,0.39154182407502774
2025-03-01 08:35:15.799189,0,0.208,0.331,9.526,2025-03-01 08:35:15.799189,9.534018093123173,0.2659819068768279,0.39092838218783754,0.532416190587776,0.8898928774483666,0.39909397389587825,0.4830239491990075,-0.08099999999999999,0.5840000000000001,-0.4139999999999997,0.720425568674516
2025-03-01 08:35:16.167189,1,1.168,1.495,10.324,2025-03-01 08:35:16.167189,10.496867389845411,0.6968673898454103,1.897168679901711,0.5420012300109036,0.6829673003397263,0.42051674560395025,0.5141654981130971,0.96,1.1640000000000001,0.798,1.7068391839889312
2025-03-01 08:35:16.565189,0,0.252,0.294,9.695,2025-03-01 08:35:16.565189,9.70272977053365,0.09727022946634989,0.3872208672063013,0.6926499837580284,0.6031868146215846,0.43062783622675554,0.46325382555816813,-0.9159999999999999,-1.201,-0.6289999999999996,1.6361839749856981
2025-03-01 08:35:16.887189,1,1.61,0.993,9.5,2025-03-01 08:35:16.887189,9.686493121868203,0.1135068781317976,1.8915995876506213,0.7024877223126373,0.5702721572489173,0.30880144645603275,0.33822472499643214,1.358,0.6990000000000001,-0.19500000000000028,1.5397369905279281
2025-03-01 08:35:17.057189,1,1.243,1.424,10.105,2025-03-01 08:35:17.057189,10.28026507440348,0.48026507440348,1.8901917892108198,0.19177156549741284,0.26887605570845147,0.46887773815072237,0.46898897254374167,-0.367,0.43099999999999994,0.6050000000000004,0.8285378687784888
2025-03-01 08:35:17.379189,1,1.33,1.487,10.423,2025-03-01 08:35:17.379189,10.612209854690963,0.8122098546909626,1.9950110275384445,0.2682654158353781,0.09351114015631715,0.36185264035700637,0.3348861568079389,0.08699999999999997,0.06300000000000017,0.3179999999999996,0.3356516050907544
2025-03-01 08:35:17.690189,1,1.745,1.303,9.701,2025-03-01 08:35:17.690189,9.942446127588523,0.1424461275885225,2.1778048581082743,0.31849175813511077,0.491354590223124,0.46150731305148796,0.4418919189983558,0.41500000000000004,-0.18400000000000016,-0.7219999999999995,0.8528569633883512
2025-03-01 08:35:18.136189,1,1.956,0.559,9.564,2025-03-01 08:35:18.136189,9.777960574680183,0.02203942531981795,2.034309956717511,0.9243161436074396,0.9050217308624878,0.08757282683575128,0.19470291654448926,0.21099999999999985,-0.7439999999999999,-0.13700000000000045,0.7853827092570856
2025-03-01 08:35:18.245189,0,0.26,-0.498,9.538,2025-03-01 08:35:18.245189,9.554530234396665,0.24546976560333533,0.5617864362905178,0.8572049540998525,0.9785770281383066,0.09900673377774691,0.16218169547924663,-1.696,-1.057,-0.0259999999999998,1.9985847492663402
2025-03-01 08:35:18.733189,1,0.891,1.457,9.721,2025-03-01 08:35:18.733189,9.869882015505556,0.06988201550555573,1.7078436696606631,0.34828197388514537,0.986595323997298,0.09317903913079081,0.15968410505378738,0.631,1.955,0.18299999999999983,2.06244393863203
2025-03-01 08:35:19.026189,0,0.32,0.248,9.66,2025-03-01 08:35:19.026189,9.668479921890514,0.13152007810948696,0.4048505897241598,0.4553903087828435,0.6702643757006139,0.10305500149598543,0.1725585976071684,-0.571,-1.209,-0.06099999999999994,1.338447981805793
2025-03-01 08:35:19.480189,0,-0.009,0.351,9.52,2025-03-01 08:35:19.480189,9.526472694549646,0.2735273054503544,0.35111536565636087,0.6239623386070665,0.5460094626774646,0.37097214630391895,0.44908225942752267,-0.329,0.10299999999999998,-0.14000000000000057,0.37208869910278136
2025-03-01 08:35:19.825189,1,1.198,1.241,10.221,2025-03-01 08:35:19.825189,10.365525842908308,0.5655258429083077,1.724901446460058,0.6481581597110383,0.6451242774329096,0.3921186045063443,0.4729496723432719,1.2069999999999999,0.8900000000000001,0.7010000000000005,1.655400253715095
2025-03-01 08:35:20.246189,0,0.185,-0.013,9.566,2025-03-01 08:35:20.246189,9.567797552206047,0.23220244779395394,0.18545619428857046,0.5326465369579826,0.6701957425508862,0.40630079169666233,0.4728999453265488,-1.013,-1.254,-0.6549999999999994,1.7400316089082977
2025-03-01 08:35:20.597189,1,0.977,1.024,10.31,2025-03-01 08:35:20.597189,10.40669039608655,0.6066903960865488,1.4153109199041742,0.8211707090083831,0.5185425087042851,0.4286851991846721,0.44025852234501184,0.792,1.037,0.7439999999999998,1.50205492576004
2025-03-01 08:35:21.083189,1,1.827,0.517,9.569,2025-03-01 08:35:21.083189,9.755561439507211,0.04443856049278949,1.8987411619280812,0.8771385295379501,0.7608313435534405,0.4052780938236555,0.40399574800230975,0.85,-0.507,-0.7409999999999997,1.2363777739833401
2025-03-01 08:35:21.378189,0,0.073,-0.472,9.655,2025-03-01 08:35:21.378189,9.666805987501766,0.13319401249823493,0.47761176702422226,0.9745226181743191,0.737415983915004,0.15503870484496074,0.20613092904495353,-1.754,-0.989,0.08599999999999852,2.0154485853030337
2025-03-01 08:35:21.543189,1,1.686,0.97,9.87,2025-03-01 08:35:21.543189,10.059840754206798,0.2598407542067971,1.9451210759230388,0.9232892287901969,0.7616096988177956,0.12804816802022725,0.19921782566742843,1.613,1.442,0.21499999999999986,2.1742488358051384
2025-03-01 08:35:21.809189,1,1.658,0.674,9.642,2025-03-01 08:35:21.809189,9.806701994044683,0.006701994044682635,1.7897597604147881,0.06672580710135696,0.27770547948021107,0.2523806648695636,0.24295592101728933,-0.028000000000000025,-0.29599999999999993,-0.22799999999999976,0.37467852887508757
2025-03-01 08:35:22.166189,1,1.559,1.229,9.366,2025-03-01 08:35:22.166189,9.57407321885518,0.22592678114482112,1.9851755589871642,0.09063295942055431,0.4154431369032358,0.27850374025017316,0.24159489890568672,-0.09899999999999998,0.555,-0.2759999999999998,0.6276957861894565
2025-03-01 08:35:22.530189,1,1.477,1.487,9.085,2025-03-01 08:35:22.530189,9.32362177482549,0.47637822517451056,2.095876427655028,0.37636285682834847,0.49124467766412916,0.14058567968799676,0.1610183028469282,-0.08199999999999985,0.258,-0.2809999999999988,0.3901909788808543
2025-03-01 08:35:22.717189,1,0.87,0.537,9.217,2025-03-01 08:35:22.717189,9.27352996436632,0.5264700356336807,1.022383978747711,0.9611030121688308,0.7440741450509715,0.3509401658402791,0.2655500467981962,-0.6070000000000001,-0.9500000000000001,0.13199999999999967,1.1350651963653895
2025-03-01 08:35:23.100189,0,-0.406,0.02,9.748,2025-03-01 08:35:23.100189,9.756471698313893,0.04352830168610744,0.4064923123504306,0.8275870548367306,0.6492197881560097,0.28521979828429933,0.24330774321470722,-1.276,-0.517,0.5309999999999988,1.4756103821808786
2025-03-01 08:35:23.585189,1,1.145,1.31,9.302,2025-03-01 08:35:23.585189,9.463314905465209,0.3366850945347917,1.7398635003930625,1.0513278904953165,0.6725511132992055,0.5295944989643845,0.5493145694171631,1.5510000000000002,1.29,-0.44599999999999973,2.0660631645716934
2025-03-01 08:35:23.701189,1,1.599,0.995,10.357,2025-03-01 08:35:23.701189,10.526835944385187,0.7268359443851864,1.8833018876430832,0.34981328352898483,0.204711992809412,0.6209736977790096,0.648336234983578,0.45399999999999996,-0.31500000000000006,1.0549999999999997,1.1909517202640918
2025-03-01 08:35:23.811189,1,0.911,0.926,9.262,2025-03-01 08:35:23.811189,9.352648876120606,0.447351123879395,1.2989984603532063,0.3637916070133137,0.21781261059299123,0.7043495817655724,0.7335611222253531,-0.688,-0.06899999999999995,-1.0949999999999989,1.2950405399059899
2025-03-01 08:35:24.047189,1,1.46,0.588,9.042,2025-03-01 08:35:24.047189,9.17796862056087,0.6220313794391306,1.5739580680564522,0.8917176309422916,0.3143055837874991,0.3634556369077312,0.2990441078056447,0.5489999999999999,-0.3380000000000001,-0.22000000000000064,0.6812084849735801
2025-03-01 08:35:24.174189,0,-0.284,0.298,9.752,2025-03-01 08:35:24.174189,9.760684607136941,0.03931539286305963,0.411655195521689,1.1275040280785391,0.6238792618234189,0.3817171727863507,0.3923692835185058,-1.744,-0.29,0.7100000000000009,1.9051866050337434
2025-03-01 08:35:24.562189,1,1.826,1.494,9.64,2025-03-01 08:35:24.562189,9.924510668037996,0.12451066803799549,2.3593032869896144,1.1176457399373025,0.9104088824991405,0.08908422980530709,0.08283431194039843,2.11,1.196,-0.1120000000000001,2.427974464445621
2025-03-01 08:35:24.779189,0,0.132,-0.293,9.816,2025-03-01 08:35:24.779189,9.821259033341907,0.02125903334190582,0.32136116753584276,1.0887993387213277,0.9293067308483247,0.16610037126189003,0.07852961894373983,-1.694,-1.787,0.17600000000000016,2.4685989953817935
2025-03-01 08:35:24.880189,0,-0.206,0.158,9.972,2025-03-01 08:35:24.880189,9.975378890047235,0.1753788900472344,0.25961509971494334,0.6733805263989561,0.5725332595870164,0.2856734732755886,0.23238620310630656,-0.33799999999999997,0.45099999999999996,0.1559999999999988,0.5847914158056696
2025-03-01 08:35:25.311189,1,1.092,0.844,9.418,2025-03-01 08:35:25.311189,9.518588340715233,0.2814116592847675,1.3801449199268896,0.827430561034177,0.5318405149415883,0.4553617609476422,0.47893874841245415,1.298,0.6859999999999999,-0.5540000000000003,1.5691768542774267
2025-03-01 08:35:25.667189,1,1.332,1.205,10.321,2025-03-01 08:35:25.667189,10.476129533372523,0.6761295333725226,1.7961762162995034,0.8462862006043423,0.8515990840765393,0.4943038876372896,0.5486887507509502,0.24,0.3610000000000001,0.9030000000000005,1.0016636161905856
2025-03-01 08:35:25.739189,0,-0.239,-0.417,9.521,2025-03-01 08:35:25.739189,9.533123884645578,0.2668761153544228,0.48063499664506326,1.0739526681066218,0.9158478767422753,0.43035837778918207,0.5284273193200882,-1.5710000000000002,-1.622,-0.7999999999999989,2.395605351471732
2025-03-01 08:35:25.852189,1,1.815,1.131,10.196,2025-03-01 08:35:25.852189,10.417859761006577,0.6178597610065761,2.1385476380010804,1.1787268555522101,0.8029379386561166,0.3459340014126061,0.4424743693575495,2.054,1.548,0.6749999999999989,2.65910605279293
2025-03-01 08:35:26.018189,0,-0.214,-0.013,9.99,2025-03-01 08:35:26.018189,9.99230028572,0.19230028572000002,0.21439449619801343,1.207263158277155,0.5955168623417257,0.6325577707477301,0.58785312652581,-2.029,-1.144,-0.20599999999999952,2.338378284196122
2025-03-01 08:35:26.236189,1,1.934,0.846,9.012,2025-03-01 08:35:26.236189,9.255928694625949,0.544071305374052,2.1109410223878826,1.2099108782605976,0.7147309517107356,0.5407904708233493,0.39259999905881543,2.148,0.859,-0.9779999999999998,2.511626763673297
2025-03-01 08:35:26.462189,1,1.825,1.406,9.101,2025-03-01 08:35:26.462189,9.388059543910021,0.41194045608997953,2.3037927424141262,1.1666551904197444,0.6101696485404698,0.3398102411641046,0.19665558201612812,-0.10899999999999999,0.5599999999999999,0.08900000000000041,0.5774097332051131
2025-03-01 08:35:26.738189,0,-0.139,0.187,9.64,2025-03-01 08:35:26.738189,9.642815460227371,0.15718453977262925,0.23300214591286494,0.9823285261730579,0.610935621267359,0.30450013683632404,0.21795796770758344,-1.964,-1.2189999999999999,0.5389999999999997,2.3735580886087453
2025-03-01 08:35:27.188189,1,0.887,0.869,9.125,2025-03-01 08:35:27.188189,9.209101747727624,0.5908982522723765,1.2417447402747475,0.796794201786132,0.5598225909458584,0.2993765744565509,0.3220187054926496,1.026,0.6819999999999999,-0.5150000000000006,1.335299591851956
2025-03-01 08:35:27.655189,1,1.43,1.297,9.647,2025-03-01 08:35:27.655189,9.838278203019064,0.03827820301906293,1.9305721949722574,0.39523958978489165,0.2892271310464044,0.2854020555870964,0.32784658683013523,0.5429999999999999,0.42799999999999994,0.5220000000000002,0.8663238424515397
2025-03-01 08:35:27.796189,1,1.656,0.746,9.186,2025-03-01 08:35:27.796189,9.3638372476245,0.43616275237550006,1.8162742083727337,0.812720329100565,0.8014181180881802,0.24674345651574808,0.23772245661781888,0.22599999999999998,-0.5509999999999999,-0.4610000000000003,0.7531254875517095
2025-03-01 08:35:28.247189,0,0.149,-0.282,9.569,2025-03-01 08:35:28.247189,9.574313865755604,0.22568613424439654,0.3189435686763412,0.7543913661577337,0.768268399280703,0.36514791523436707,0.3383556213722352,-1.507,-1.028,0.3830000000000009,1.86400697423588
2025-03-01 08:35:28.685189,1,0.839,1.221,9.916,2025-03-01 08:35:28.685189,10.026056951763241,0.22605695176324048,1.4814729157159776,0.7415847894880251,0.7689956653540602,0.3510075972587171,0.3283482105382187,0.69,1.5030000000000001,0.34699999999999953,1.6898278018780493
2025-03-01 08:35:28.972189,1,1.631,0.752,9.214,2025-03-01 08:35:28.972189,9.387409706623016,0.4125902933769847,1.7960136413735839,1.031123820563434,0.7044196192611335,0.3838246127247919,0.32902176024751445,0.792,-0.4690000000000001,-0.702,1.1575962163034226
2025-03-01 08:35:29.190189,0,-0.414,-0.164,9.834,2025-03-01 08:35:29.190189,9.844076797750004,0.044076797750003394,0.4452998989445203,1.2017017100761744,0.4630392351986315,0.3935733730830924,0.3017292191932042,-2.045,-0.916,0.6199999999999992,2.3249690320518246
2025-03-01 08:35:29.285189,0,-0.485,0.176,9.944,2025-03-01 08:35:29.285189,9.957376009772856,0.1573760097728556,0.5159467026738324,0.1128287788347416,0.25319623483245834,0.1877906635946924,0.18981169036109216,-0.07100000000000001,0.33999999999999997,0.11000000000000121,0.36433638303084726
2025-03-01 08:35:29.718189,0,-0.264,-0.319,9.578,2025-03-01 08:35:29.718189,9.58694638558076,0.2130536144192412,0.4140736649438117,1.1119956534687243,0.7670451964084865,0.4040804375368833,0.49413557605913805,0.22099999999999997,-0.495,-0.36600000000000144,0.6540810347349945
2025-03-01 08:35:29.800189,1,1.542,1.186,10.385,2025-03-01 08:35:29.800189,10.565632257465712,0.7656322574657111,1.9453431573889477,0.9174580826028688,0.8115768601925516,0.4460967757486379,0.5230766958609898,1.806,1.505,0.8070000000000004,2.485540182736944
2025-03-01 08:35:30.064189,1,0.92,0.96,10.311,2025-03-01 08:35:30.064189,10.396380187353673,0.596380187353672,1.329661611087573,0.49454322359121927,0.3484958153742079,0.66613587202612,0.6280952778945958,-0.622,-0.22599999999999998,-0.07399999999999984,0.665909903815824
2025-03-01 08:35:30.411189,1,1.897,0.502,9.196,2025-03-01 08:35:30.411189,9.403032968143842,0.39696703185615867,1.9622978876816843,0.4998563126872841,0.25416792349416123,0.5683575752405681,0.5087750594078215,0.977,-0.45799999999999996,-1.1150000000000002,1.5516178653263826
2025-03-01 08:35:30.763189,1,1.592,0.54,9.562,2025-03-01 08:35:30.763189,9.708651193651978,0.091348806348023,1.6810901225097958,0.30951090449286894,0.021939310229214748,0.493593287366572,0.4381938622943897,-0.30499999999999994,0.038000000000000034,0.36599999999999966,0.4779382805342126
2025-03-01 08:35:31.130189,1,1.278,0.54,10.173,2025-03-01 08:35:31.130189,10.267171616370305,0.4671716163703046,1.3874018884231059,0.581064540305117,0.2690452254423661,0.30550340969183304,0.28660130762562563,-0.31400000000000006,0.0,0.6110000000000007,0.6869621532515462
2025-03-01 08:35:31.605189,0,0.466,0.074,9.865,2025-03-01 08:35:31.605189,9.876277486988709,0.07627748698870818,0.47183895557700617,0.7387532289833554,0.31300212991820586,0.16309199857749296,0.2123084597443384,-0.812,-0.466,-0.30799999999999983,0.9855780030012845
2025-03-01 08:35:32.016189,0,-0.197,-0.055,9.926,2025-03-01 08:35:32.016189,9.928107070333196,0.12810707033319524,0.20453361581901397,0.5561711367316132,0.8445320203126307,0.5161869816258498,0.42526613421509774,-0.663,-0.129,0.06099999999999994,0.67818212892998
2025-03-01 08:35:32.132189,1,0.908,1.468,9.003,2025-03-01 08:35:32.132189,9.166978618934376,0.6330213810656247,1.7261193469745943,0.9764560068601822,0.8317585787554789,0.48294547656370207,0.383163913664361,1.105,1.523,-0.923,2.0958251358355255
2025-03-01 08:35:32.553189,1,1.75,1.286,9.218,2025-03-01 08:35:32.553189,9.47036535726051,0.3296346427394905,2.171703478838674,0.525594266838336,0.46509604742819993,0.4313239308609498,0.436809050880368,0.842,-0.18199999999999994,0.21499999999999986,0.8878699229053768
2025-03-01 08:35:32.898189,1,1.874,0.587,9.834,2025-03-01 08:35:32.898189,10.028160399594732,0.22816039959473144,1.9637833383548198,0.06992376801435907,0.38140573322032534,0.3462503910948556,0.3243124908885135,0.12400000000000011,-0.6990000000000001,0.6159999999999997,0.9399111660151718
2025-03-01 08:35:32.954189,1,1.868,0.672,9.252,2025-03-01 08:35:32.954189,9.462584847704141,0.3374151522958595,1.9851972194217884,1.008635381757615,0.5354496552742687,0.34531483219424247,0.2918252014290508,-0.006000000000000005,0.08500000000000008,-0.581999999999999,0.5882048962733979
2025-03-01 08:35:33.111189,0,0.124,-0.295,9.865,2025-03-01 08:35:33.111189,9.870188751994563,0.07018875199456254,0.32000156249618533,1.0243555697770836,0.49365068621445224,0.3341441804570867,0.21578993097788302,-1.7440000000000002,-0.9670000000000001,0.6129999999999995,2.086239200091878
2025-03-01 08:35:33.172189,0,0.065,0.016,9.789,2025-03-01 08:35:33.172189,9.789228876678694,0.01077112332130703,0.06694027188471825,0.9222116532192237,0.4343757973613779,0.12761008319618433,0.04969821256167154,-0.059,0.311,-0.07600000000000051,0.32554262393732725
2025-03-01 08:35:33.223189,1,1.691,0.563,9.616,2025-03-01 08:35:33.223189,9.779770242699978,0.0202297573000223,1.7822598014879873,1.116718854501885,0.31324484566123834,0.16703592427978917,0.10150006949070958,1.6260000000000001,0.5469999999999999,-0.17300000000000004,1.72424302231443
2025-03-01 08:35:33.528189,0,-0.448,0.025,9.95,2025-03-01 08:35:33.528189,9.9601118969618,0.16011189696179962,0.448697002441514,1.079704126138268,0.2892167583895049,0.17950208912434334,0.1385749582908687,-2.1390000000000002,-0.5379999999999999,0.33399999999999963,2.2307669084868547
2025-03-01 08:35:33.748189,0,0.365,0.478,9.669,2025-03-01 08:35:33.748189,9.687686514333544,0.11231348566645671,0.6014224804577893,0.4566862526213564,0.2273741410099217,0.16281584689459064,0.1571015037490671,0.813,0.45299999999999996,-0.2809999999999988,0.9721825960178464
2025-03-01 08:35:33.799189,0,0.319,0.217,9.952,2025-03-01 08:35:33.799189,9.95947558860405,0.15947558860404953,0.38581083447720854,0.1861782300198831,0.14329107904309082,0.19385303711833904,0.19080803892626677,-0.045999999999999985,-0.261,0.2829999999999995,0.3877189703896363
2025-03-01 08:35:33.905189,0,0.022,0.45,9.581,2025-03-01 08:35:33.905189,9.591587199207439,0.20841280079256208,0.45053745682240454,0.8544906865105866,0.5277275180747482,0.22829878084067076,0.3075760516309194,-0.297,0.233,-0.37100000000000044,0.5292815885707723
2025-03-01 08:35:34.106189,1,1.628,1.225,9.997,2025-03-01 08:35:34.106189,10.20250057583924,0.40250057583923926,2.0374025130052233,0.808906257444787,0.419535854645743,0.2797427389584989,0.3587237584753936,1.6059999999999999,0.7750000000000001,0.41600000000000037,1.8310972120562032
2025-03-01 08:35:34.295189,1,0.994,1.116,10.113,2025-03-01 08:35:34.295189,10.22283038106375,0.4228303810637488,1.4944872030231642,0.8870723382753699,0.9423695311995893,0.09168969407737126,0.1558076005429143,-0.6339999999999999,-0.10899999999999999,0.11599999999999966,0.6536765255078384
2025-03-01 08:35:34.441189,0,-0.124,-0.459,9.932,2025-03-01 08:35:34.441189,9.94337372323901,0.14337372323900865,0.4754545193811917,0.6528141644705128,0.8209082368531415,0.09254368337890637,0.14002426682723182,-1.1179999999999999,-1.5750000000000002,-0.18099999999999916,1.9399252562921079
2025-03-01 08:35:34.536189,1,1.019,0.73,9.989,2025-03-01 08:35:34.536189,10.067342350392183,0.2673423503921821,1.2534995013959918,0.6424974708121429,0.9823375183713591,0.2978360846729864,0.36169067002550126,1.1429999999999998,1.189,0.057000000000000384,1.6502784613512955
2025-03-01 08:35:34.761189,1,0.956,1.49,10.474,2025-03-01 08:35:34.761189,10.622556754378863,0.8225567543788621,1.7703208748698638,0.031501322723522705,0.400120398546905,0.3684648332383091,0.4019264424660595,-0.06299999999999994,0.76,0.48499999999999943,0.9037665627804558
2025-03-01 08:35:35.089189,1,0.988,0.893,9.751,2025-03-01 08:35:35.089189,9.841523967353837,0.0415239673538359,1.3317631170745043,0.04454211490262285,0.34352923213801495,0.4168480938343536,0.4312200453816707,0.03200000000000003,-0.597,-0.7230000000000008,0.9381694942812845
2025-03-01 08:35:35.258189,1,0.9,0.897,10.472,2025-03-01 08:35:35.258189,10.548810027676106,0.7488100276761056,1.2706726565091422,0.5168726471127426,0.6119945533526697,0.39173588040923923,0.40663201835341184,-0.08799999999999997,0.0040000000000000036,0.7210000000000001,0.7263614802562152
2025-03-01 08:35:35.622189,0,0.052,-0.165,9.846,2025-03-01 08:35:35.622189,9.84751973849253,0.047519738492528774,0.17300000000000001,0.51196907458687,0.5474924657015839,0.4153857644808439,0.4583240841902381,-0.848,-1.062,-0.6259999999999994,1.496270029105709
2025-03-01 08:35:35.915189,0,-0.021,0.135,9.686,2025-03-01 08:35:35.915189,9.686963507725215,0.11303649227478552,0.1366235704408284,0.036637867478034845,0.18085445345175516,0.10396313449168666,0.1041442784880354,-0.073,0.30000000000000004,-0.16000000000000014,0.347748472318715
2025-03-01 08:35:35.999189,0,0.01,0.16,9.651,2025-03-01 08:35:35.999189,9.6523313764085,0.14766862359150146,0.16031219541881397,0.21504495654011282,0.25001666611114753,0.018027756377413922,0.01739711367573799,0.031,0.024999999999999994,-0.03500000000000014,0.05301886456724634
2025-03-01 08:35:36.276189,0,-0.377,-0.285,9.661,2025-03-01 08:35:36.276189,9.672552662043252,0.1274473379567489,0.47260342783352727,0.19350021533150646,0.22250468159868672,0.005000000000340105,0.010437583482226578,-0.387,-0.44499999999999995,0.009999999999999787,0.5898253978933087
2025-03-01 08:35:36.344189,0,-0.183,-0.065,9.656,2025-03-01 08:35:36.344189,9.657952681598726,0.14204731840127494,0.19420092687729376,1.0908942814651363,0.7820019181562152,0.06096173663320827,0.17206773694705932,0.194,0.21999999999999997,-0.004999999999999005,0.2933615516730166
2025-03-01 08:35:36.402189,1,1.602,1.166,9.764,2025-03-01 08:35:36.402189,9.96301440328177,0.1630144032817693,1.9814035429462622,1.1233300197775054,0.7204334343527748,0.3740004456325375,0.31086558771309375,1.7850000000000001,1.2309999999999999,0.10799999999999876,2.1710020727765325
2025-03-01 08:35:36.694189,1,1.891,1.199,9.069,2025-03-01 08:35:36.694189,9.341319125262771,0.4586808747372295,2.239080614895319,0.1662798845320528,0.1599135182945282,0.39478644015889996,0.3789204499704677,0.2889999999999999,0.03300000000000014,-0.6949999999999985,0.7534155559848748
2025-03-01 08:35:37.024189,1,1.604,0.907,9.092,2025-03-01 08:35:37.024189,9.27684908791773,0.5231509120822704,1.8426787565932377,0.17700941594538244,0.14723790272888654,0.6735772660455049,0.6785390302802574,-0.2869999999999999,-0.29200000000000004,0.022999999999999687,0.41007560278563265
2025-03-01 08:35:37.273189,1,1.927,1.086,10.247,2025-03-01 08:35:37.273189,10.48302122481873,0.6830212248187291,2.2119504967335955,0.8137954288394568,0.857143123015832,0.5794609564069044,0.606335516087982,0.32299999999999995,0.17900000000000005,1.1549999999999994,1.2125984496114113
2025-03-01 08:35:37.724189,0,0.384,-0.48,9.752,2025-03-01 08:35:37.724189,9.771354051512002,0.028645948487998396,0.6146999267935535,1.0321164340002207,0.838377003501408,0.3267511795439128,0.4562868039989815,-1.5430000000000001,-1.566,-0.4949999999999992,2.2534928444528064
2025-03-01 08:35:38.115189,0,-0.032,-0.216,9.63,2025-03-01 08:35:38.115189,9.632475278971652,0.16752472102834837,0.21835750502329887,0.20846102753273127,0.134760280993075,0.061460014101343746,0.06979456715403799,-0.41600000000000004,0.264,-0.12199999999999989,0.5075785653472771
2025-03-01 08:35:38.391189,0,0.2,-0.395,9.704,2025-03-01 08:35:38.391189,9.714094965564215,0.08590503443578612,0.44274710614525764,0.2646456750701528,0.45715898037043196,0.08058742664545854,0.07697298844686634,0.232,-0.17900000000000002,0.07399999999999984,0.30222673607740264
2025-03-01 08:35:38.511189,0,-0.328,0.471,9.543,2025-03-01 08:35:38.511189,9.560244452941566,0.23975554705843471,0.5739555731936052,0.34698126750590275,0.4623952133546943,0.0807279381627193,0.07705099805890071,-0.528,0.866,-0.16100000000000136,1.0269668933320102
2025-03-01 08:35:38.861189,0,0.326,0.319,9.634,2025-03-01 08:35:38.861189,9.644790977517346,0.155209022482655,0.45611073216928366,0.6735940914230181,0.21211396307959968,0.5247669323931698,0.5596871311692142,0.654,-0.15199999999999997,0.09100000000000108,0.6775699225910196
2025-03-01 08:35:39.229189,1,1.019,0.738,10.494,2025-03-01 08:35:39.229189,10.569155169643409,0.7691551696434082,1.2581752660102645,0.6558574540248827,0.40458662030933934,0.434333205423368,0.4696451599813324,0.6929999999999998,0.419,0.8599999999999994,1.1812747351907593
2025-03-01 08:35:39.374189,0,-0.292,-0.071,9.958,2025-03-01 08:35:39.374189,9.962533262177848,0.16253326217784725,0.30050790339024364,0.7354243672873506,0.7227878895867957,0.26980733866966017,0.3042412572364684,-1.311,-0.8089999999999999,-0.5359999999999996,1.6311033075804855
2025-03-01 08:35:39.499189,1,0.941,1.371,10.172,2025-03-01 08:35:39.499189,10.307022169375596,0.5070221693755954,1.6628655988984797,1.009921944178525,0.7606845601167417,0.12355295760660039,0.1728713424323451,1.2329999999999999,1.442,0.2140000000000004,1.9093058948214663
2025-03-01 08:35:39.645189,1,1.71,1.07,9.958,2025-03-01 08:35:39.645189,10.16025413068,0.36025413067999956,2.0171762441591463,0.7946363948372851,0.7550260481157814,0.1612740938072157,0.22953835251648286,0.769,-0.30099999999999993,-0.2140000000000004,0.8530873343333613
2025-03-01 08:35:40.098189,0,0.121,-0.061,9.856,2025-03-01 08:35:40.098189,9.856931469783078,0.05693146978307695,0.1355064574107079,0.8902080281222641,0.6660482965471305,0.3672887147735506,0.34000929929784246,-1.589,-1.131,-0.10200000000000031,1.953070915251159
2025-03-01 08:35:40.402189,1,1.611,1.114,9.277,2025-03-01 08:35:40.402189,9.481510744601833,0.31848925539816797,1.9586518322560547,0.7903425417711818,0.6604228443454495,0.30003499795858274,0.18929954907062757,1.49,1.175,-0.5790000000000006,1.98392691397642
2025-03-01 08:35:40.750189,0,0.409,0.004,9.703,2025-03-01 08:35:40.750189,9.711617064114503,0.08838293588549817,0.4090195594345092,0.8614646442735375,0.5867921267365476,0.289268041788247,0.1780155134536929,-1.202,-1.11,0.42600000000000016,1.6906744216436234
2025-03-01 08:35:40.947189,0,-0.059,0.229,9.829,2025-03-01 08:35:40.947189,9.831844333592757,0.03184433359275651,0.23647832881682837,0.2447066270727779,0.3420570127917275,0.06598737252944788,0.0640734841447233,-0.46799999999999997,0.225,0.12600000000000122,0.5343453939167065
2025-03-01 08:35:41.064189,0,0.051,-0.443,9.8,2025-03-01 08:35:41.064189,9.810140162097584,0.010140162097583172,0.44592600283006595,1.013588345105316,0.6740009891189579,0.32392951908299494,0.426942342819863,0.10999999999999999,-0.672,-0.028999999999999915,0.6815607089614248
2025-03-01 08:35:41.163189,1,1.749,0.905,10.375,2025-03-01 08:35:41.163189,10.56023915448888,0.7602391544888789,1.9692704232786313,0.9252336641807478,0.7705921965172847,0.30483274102367536,0.404184818148824,1.6980000000000002,1.348,0.5749999999999993,2.2429741416253552
2025-03-01 08:35:41.598189,0,0.263,-0.416,9.912,2025-03-01 08:35:41.598189,9.924211253293635,0.12421125329363392,0.49216359068911225,0.8640684772246523,0.7023206769940166,0.23589475054214484,0.3180153182190373,-1.4860000000000002,-1.321,-0.4629999999999992,2.041471528089481
2025-03-01 08:35:41.937189,1,1.77,0.658,10.065,2025-03-01 08:35:41.937189,10.240609796296312,0.4406097962963109,1.888349543913944,0.7591765275612766,0.8146222028236978,0.15752142711392267,0.20425790071235408,1.5070000000000001,1.074,0.1529999999999987,1.8568613303098325
2025-03-01 08:35:42.337189,1,0.856,1.182,9.75,2025-03-01 08:35:42.337189,9.85861856448458,0.05861856448457914,1.4594039879348006,0.4674209380561902,0.27452747282072537,0.27644227848384645,0.2937799879639707,-0.914,0.5239999999999999,-0.3149999999999995,1.0996349394230795
2025-03-01 08:35:42.724189,1,1.483,0.778,10.301,2025-03-01 08:35:42.724189,10.436243289613365,0.6362432896133647,1.6746859407064958,0.36942703384204206,0.20204042499790534,0.28051916155586826,0.2980477718104555,0.6270000000000001,-0.4039999999999999,0.5510000000000002,0.9273327342437558
2025-03-01 08:35:43.057189,1,1.508,0.973,10.117,2025-03-01 08:35:43.057189,10.274944379411503,0.474944379411502,1.7946567917014105,0.8179121794748693,0.5431601973635407,0.17067805951559,0.24197831076194615,0.02499999999999991,0.19499999999999995,-0.18399999999999928,0.26926938184650645
2025-03-01 08:35:43.528189,0,0.079,-0.05,9.96,2025-03-01 08:35:43.528189,9.960438795555143,0.16043879555514273,0.09349331526906082,0.9775327786490507,0.6241466173904977,0.251309238456011,0.3209431172689196,-1.429,-1.023,-0.15700000000000003,1.7644316365334192
